SpectraSuite Data File
++++++++++++++++++++++++++++++++++++
Date: Thu Jun 15 11:40:02 BST 2017
User: Eng0000912
Dark Spectrum Present: Yes
Reference Spectrum Present: No
Number of Sampled Component Spectra: 1
Spectrometers: USB2+H04851
Integration Time (usec): 100000 (USB2+H04851)
Spectra Averaged: 20 (USB2+H04851)
Boxcar Smoothing: 0 (USB2+H04851)
Correct for Electrical Dark: No (USB2+H04851)
Strobe/Lamp Enabled: No (USB2+H04851)
Correct for Detector Non-linearity: No (USB2+H04851)
Correct for Stray Light: No (USB2+H04851)
Number of Pixels in Processed Spectrum: 2048
>>>>>Begin Processed Spectral Data<<<<<
340.07	-22.71
340.45	-22.71
340.82	-22.71
341.20	-23.50
341.58	-31.64
341.96	-23.62
342.34	-41.13
342.72	-24.29
343.10	-22.37
343.48	-27.12
343.85	-34.01
344.23	-16.72
344.61	-23.50
344.99	-25.54
345.37	-15.48
345.75	-25.99
346.13	-44.18
346.50	-24.07
346.88	-18.08
347.26	-36.50
347.64	-43.50
348.02	-20.68
348.40	-44.07
348.77	-22.82
349.15	-10.96
349.53	-9.38
349.91	-35.82
350.29	-15.14
350.66	-37.06
351.04	-22.26
351.42	-15.37
351.80	-19.32
352.18	-25.76
352.55	-22.37
352.93	-27.00
353.31	-9.94
353.69	-21.69
354.07	-20.23
354.44	-23.16
354.82	-36.38
355.20	-24.75
355.58	-24.75
355.95	-25.76
356.33	-15.82
356.71	-20.23
357.09	-44.07
357.46	-25.20
357.84	-12.54
358.22	-15.48
358.60	-26.33
358.97	-22.49
359.35	-7.01
359.73	-13.33
360.10	-18.64
360.48	-19.77
360.86	-32.65
361.24	-29.83
361.61	-5.31
361.99	-45.31
362.37	-32.77
362.74	-31.19
363.12	-26.67
363.50	-51.98
363.87	-24.29
364.25	-22.49
364.63	-38.19
365.01	-25.20
365.38	-38.08
365.76	-20.90
366.14	-25.08
366.51	-30.96
366.89	-20.34
367.27	-12.66
367.64	-8.47
368.02	-34.69
368.39	-6.44
368.77	-31.98
369.15	-40.11
369.52	3.50
369.90	-25.76
370.28	-16.95
370.65	-17.74
371.03	-23.62
371.40	-28.70
371.78	-29.38
372.16	-24.75
372.53	-18.30
372.91	-8.93
373.28	-14.80
373.66	-24.41
374.04	-27.68
374.41	-31.30
374.79	-22.82
375.16	-23.50
375.54	-29.83
375.92	-20.45
376.29	-26.78
376.67	-29.26
377.04	-17.51
377.42	-32.65
377.79	-19.21
378.17	-14.46
378.55	-23.84
378.92	-2.49
379.30	-25.54
379.67	-37.85
380.05	-2.03
380.42	-14.35
380.80	-28.13
381.17	-25.31
381.55	-18.42
381.92	-28.93
382.30	-39.89
382.67	-22.94
383.05	-8.47
383.42	-25.88
383.80	-46.67
384.17	-8.14
384.55	-21.69
384.92	-41.24
385.30	-35.37
385.67	-26.89
386.05	-33.45
386.42	-14.91
386.80	-13.45
387.17	-21.36
387.55	-16.38
387.92	-23.95
388.30	-24.18
388.67	-26.67
389.04	-29.38
389.42	-11.75
389.79	-24.63
390.17	-21.13
390.54	-27.34
390.92	-24.07
391.29	-18.30
391.67	-23.28
392.04	-9.83
392.41	-12.20
392.79	-28.02
393.16	-9.15
393.54	-19.66
393.91	-17.63
394.28	-6.89
394.66	-26.67
395.03	-30.39
395.41	-26.10
395.78	-13.45
396.15	-21.13
396.53	-38.08
396.90	-31.30
397.28	-19.10
397.65	-14.58
398.02	-13.67
398.40	-10.51
398.77	-24.41
399.14	-22.71
399.52	-37.74
399.89	-24.18
400.26	-30.17
400.64	-32.09
401.01	-23.73
401.38	-7.12
401.76	-28.02
402.13	-15.48
402.50	-17.74
402.88	-21.13
403.25	-20.90
403.62	-20.56
404.00	-43.73
404.37	-22.82
404.74	-14.24
405.12	-41.02
405.49	-25.08
405.86	-14.24
406.23	-25.65
406.61	-4.29
406.98	-28.70
407.35	-43.61
407.73	-35.03
408.10	-10.06
408.47	-5.54
408.84	-17.63
409.22	-32.77
409.59	-16.50
409.96	-29.83
410.33	-39.77
410.71	-18.53
411.08	-18.98
411.45	-17.74
411.82	-10.51
412.20	-25.20
412.57	-13.11
412.94	-33.78
413.31	-20.00
413.68	-30.62
414.06	-33.22
414.43	-32.54
414.80	-30.51
415.17	-4.07
415.55	-17.17
415.92	-21.02
416.29	-8.47
416.66	-18.42
417.03	-24.75
417.40	-4.63
417.78	-30.39
418.15	-6.89
418.52	-18.30
418.89	-24.18
419.26	-25.99
419.63	-16.16
420.01	-31.19
420.38	-20.11
420.75	-29.83
421.12	-34.58
421.49	-17.97
421.86	-17.74
422.23	-29.38
422.61	-30.06
422.98	-30.39
423.35	-22.71
423.72	-14.24
424.09	-43.50
424.46	-19.43
424.83	-32.54
425.20	-19.66
425.58	-14.58
425.95	-19.43
426.32	-20.45
426.69	-23.73
427.06	-5.08
427.43	-40.56
427.80	-34.58
428.17	-16.50
428.54	-23.95
428.91	-29.94
429.28	-9.04
429.65	-28.47
430.02	-8.93
430.40	-16.84
430.77	-12.99
431.14	-42.94
431.51	-7.46
431.88	-16.95
432.25	-22.49
432.62	-25.31
432.99	-26.44
433.36	-18.64
433.73	-35.14
434.10	-31.64
434.47	-18.42
434.84	-19.66
435.21	-1.02
435.58	-15.71
435.95	-19.21
436.32	-18.53
436.69	-32.99
437.06	-5.20
437.43	-31.41
437.80	-33.90
438.17	-20.56
438.54	-28.25
438.91	-18.19
439.28	-15.93
439.65	-30.17
440.02	-33.22
440.39	-36.27
440.76	-41.47
441.13	-1.69
441.49	-12.32
441.86	-9.72
442.23	-25.31
442.60	-22.37
442.97	-8.02
443.34	-24.41
443.71	-36.38
444.08	-60.90
444.45	-13.45
444.82	-17.51
445.19	-30.51
445.56	-19.66
445.93	-11.07
446.29	-25.31
446.66	-45.54
447.03	-26.89
447.40	-25.08
447.77	-18.42
448.14	-15.25
448.51	-15.25
448.88	-13.90
449.24	-5.99
449.61	-49.60
449.98	-27.57
450.35	-17.17
450.72	-15.93
451.09	-18.64
451.46	-11.19
451.82	-5.20
452.19	-26.44
452.56	-11.86
452.93	-13.33
453.30	-31.52
453.67	-15.14
454.03	-26.21
454.40	-33.11
454.77	-6.78
455.14	-29.94
455.51	-27.68
455.87	-23.28
456.24	-10.73
456.61	-14.91
456.98	-11.75
457.35	-27.46
457.71	-15.25
458.08	-34.80
458.45	-7.34
458.82	-17.29
459.19	-21.69
459.55	-25.08
459.92	-18.53
460.29	-17.51
460.66	-15.59
461.02	-27.46
461.39	-15.93
461.76	-4.18
462.13	-25.31
462.49	-3.73
462.86	-18.53
463.23	-33.11
463.59	-18.76
463.96	-8.47
464.33	-9.83
464.70	5.76
465.06	-14.01
465.43	-17.17
465.80	-20.56
466.16	-27.23
466.53	-16.50
466.90	-11.53
467.26	-42.71
467.63	-16.84
468.00	-32.09
468.36	-21.58
468.73	-25.88
469.10	-24.52
469.46	-14.12
469.83	-16.50
470.20	-21.24
470.56	-27.68
470.93	-37.97
471.30	-29.60
471.66	-25.99
472.03	-20.68
472.40	-7.91
472.76	-10.73
473.13	-29.72
473.50	-44.29
473.86	-2.03
474.23	-29.83
474.59	-32.77
474.96	-45.20
475.33	-4.86
475.69	-29.49
476.06	-38.19
476.42	-21.81
476.79	-6.21
477.16	-17.17
477.52	-19.66
477.89	-24.41
478.25	-21.02
478.62	-27.12
478.98	-30.28
479.35	-13.90
479.72	-46.67
480.08	-19.32
480.45	-9.94
480.81	-25.76
481.18	-31.19
481.54	-35.37
481.91	-33.78
482.27	-26.44
482.64	-26.44
483.00	-16.16
483.37	-24.75
483.73	-27.46
484.10	-21.36
484.46	-20.11
484.83	-6.55
485.19	-10.96
485.56	-18.08
485.92	-24.86
486.29	-19.89
486.65	-29.04
487.02	-11.75
487.38	-23.84
487.75	-15.59
488.11	-23.84
488.48	-25.76
488.84	-27.68
489.21	-14.80
489.57	-34.35
489.94	-29.72
490.30	-13.33
490.66	-8.70
491.03	-5.08
491.39	-23.39
491.76	-23.16
492.12	-23.28
492.49	-29.72
492.85	-25.99
493.21	-8.14
493.58	-13.67
493.94	2.82
494.31	-27.12
494.67	-26.21
495.03	-26.55
495.40	-18.19
495.76	-45.42
496.13	-11.30
496.49	-24.86
496.85	-22.82
497.22	-18.53
497.58	-13.11
497.94	-6.21
498.31	3.62
498.67	-29.60
499.04	-12.99
499.40	-17.29
499.76	-16.38
500.13	-21.92
500.49	-15.82
500.85	-29.94
501.22	-24.29
501.58	-13.90
501.94	-8.47
502.31	-14.12
502.67	-1.47
503.03	-40.56
503.40	-17.97
503.76	-24.29
504.12	-16.16
504.48	-28.02
504.85	-19.66
505.21	-35.37
505.57	-32.99
505.94	-31.52
506.30	-10.06
506.66	-21.47
507.02	-31.41
507.39	-20.90
507.75	-52.77
508.11	-29.49
508.47	-24.97
508.84	-24.18
509.20	-2.82
509.56	-29.83
509.92	-19.43
510.29	-13.56
510.65	-27.46
511.01	-19.66
511.37	-30.06
511.74	-5.42
512.10	-8.47
512.46	-19.66
512.82	-14.35
513.18	-31.52
513.55	-24.97
513.91	-20.00
514.27	-16.50
514.63	-26.89
514.99	-29.49
515.35	-22.03
515.72	-22.03
516.08	-20.23
516.44	-34.46
516.80	-36.61
517.16	-28.81
517.52	-11.41
517.89	-9.04
518.25	-32.65
518.61	-32.65
518.97	-17.40
519.33	-22.03
519.69	2.37
520.05	-33.67
520.42	-36.38
520.78	-34.01
521.14	-36.72
521.50	-29.04
521.86	-36.38
522.22	-10.28
522.58	-11.86
522.94	-21.47
523.30	-21.69
523.67	-16.61
524.03	-31.75
524.39	-17.51
524.75	-27.34
525.11	-12.99
525.47	-16.84
525.83	-24.18
526.19	-32.77
526.55	13.33
526.91	-3.84
527.27	-11.53
527.63	-17.17
527.99	-8.59
528.35	-9.94
528.71	-19.55
529.07	-31.86
529.43	-12.20
529.79	-33.33
530.15	-15.37
530.51	-21.24
530.87	-15.37
531.23	4.52
531.59	-20.79
531.95	-25.08
532.31	-38.19
532.67	-45.08
533.03	-29.60
533.39	-15.82
533.75	-10.73
534.11	-27.46
534.47	-9.72
534.83	-23.05
535.19	-11.53
535.55	6.44
535.91	-30.85
536.27	-17.97
536.63	-23.62
536.99	-24.63
537.35	-14.69
537.71	-19.32
538.07	-34.80
538.43	-18.42
538.79	-30.51
539.15	-31.19
539.51	-29.72
539.86	-20.00
540.22	-27.68
540.58	-28.13
540.94	-4.07
541.30	-7.46
541.66	-21.47
542.02	-4.41
542.38	-21.13
542.74	-8.47
543.09	-24.63
543.45	-28.13
543.81	-28.36
544.17	-16.50
544.53	-26.78
544.89	-24.41
545.25	-13.56
545.60	-27.68
545.96	-42.37
546.32	-15.14
546.68	-13.33
547.04	-19.21
547.40	-9.60
547.75	-7.91
548.11	-20.56
548.47	-16.27
548.83	-19.55
549.19	-26.89
549.55	-13.22
549.90	-27.57
550.26	-27.57
550.62	-13.11
550.98	-30.39
551.34	-15.82
551.69	-20.11
552.05	-29.49
552.41	-33.22
552.77	-15.37
553.12	-31.07
553.48	-5.31
553.84	-12.88
554.20	-20.68
554.55	-13.22
554.91	-8.25
555.27	-38.42
555.63	-12.77
555.98	-1.47
556.34	-25.20
556.70	-20.00
557.05	-19.21
557.41	-33.33
557.77	-20.23
558.13	-24.07
558.48	-22.60
558.84	-32.88
559.20	-7.91
559.55	-40.56
559.91	-12.66
560.27	-12.09
560.62	-35.93
560.98	-6.44
561.34	-9.04
561.69	-7.23
562.05	-17.85
562.41	-19.21
562.76	-11.64
563.12	-10.85
563.48	-7.46
563.83	-13.56
564.19	-19.43
564.55	-30.17
564.90	-16.95
565.26	-41.47
565.62	-27.12
565.97	-29.83
566.33	-3.73
566.68	-19.10
567.04	-17.40
567.40	-10.17
567.75	-23.95
568.11	-22.15
568.46	-27.46
568.82	-17.06
569.18	-30.39
569.53	0.00
569.89	-16.04
570.24	-12.32
570.60	-23.28
570.95	-3.16
571.31	-4.86
571.66	7.34
572.02	14.69
572.38	11.86
572.73	37.63
573.09	29.15
573.44	66.66
573.80	46.78
574.15	25.42
574.51	26.21
574.86	34.58
575.22	57.40
575.57	28.47
575.93	18.98
576.28	46.44
576.64	31.52
576.99	52.54
577.35	17.97
577.70	26.10
578.06	13.11
578.41	21.58
578.77	20.79
579.12	-7.91
579.48	22.49
579.83	24.52
580.18	0.68
580.54	15.14
580.89	16.50
581.25	2.82
581.60	-0.68
581.96	-23.05
582.31	-24.97
582.67	-4.29
583.02	-24.52
583.37	-18.76
583.73	-22.15
584.08	-11.07
584.44	2.03
584.79	-10.40
585.14	-21.92
585.50	-12.09
585.85	-39.32
586.21	-5.31
586.56	-18.30
586.91	-32.88
587.27	-11.30
587.62	-27.57
587.97	-26.33
588.33	-31.30
588.68	-22.60
589.03	-10.73
589.39	-22.82
589.74	-7.57
590.09	-16.84
590.45	-20.56
590.80	-26.33
591.15	-16.38
591.51	-36.50
591.86	-12.43
592.21	-19.43
592.57	-26.33
592.92	-16.27
593.27	-14.58
593.63	-38.64
593.98	-24.18
594.33	-40.34
594.69	-21.69
595.04	-22.60
595.39	-11.98
595.74	-18.64
596.10	-13.90
596.45	-25.08
596.80	-38.98
597.15	-21.02
597.51	-5.76
597.86	-12.66
598.21	-16.72
598.56	1.47
598.92	-21.69
599.27	-21.47
599.62	-15.59
599.97	-14.35
600.32	-13.45
600.68	-17.06
601.03	4.07
601.38	-18.76
601.73	-7.68
602.09	-17.97
602.44	-23.95
602.79	-39.55
603.14	-11.75
603.49	-24.29
603.84	-16.04
604.20	-19.21
604.55	-12.99
604.90	-23.28
605.25	-25.54
605.60	-20.90
605.95	-42.37
606.31	-25.99
606.66	-22.37
607.01	-11.75
607.36	-30.85
607.71	-19.55
608.06	-31.30
608.41	-34.91
608.76	-21.02
609.12	-19.77
609.47	-15.14
609.82	-27.00
610.17	-5.65
610.52	-21.13
610.87	-8.36
611.22	-11.30
611.57	-27.12
611.92	-29.60
612.27	-5.08
612.62	-27.57
612.98	-25.99
613.33	-41.58
613.68	-7.91
614.03	-12.09
614.38	-19.32
614.73	-30.06
615.08	-20.23
615.43	-19.21
615.78	-29.60
616.13	-21.47
616.48	-22.37
616.83	-16.72
617.18	-33.11
617.53	-22.26
617.88	-44.97
618.23	-37.85
618.58	-11.30
618.93	-19.43
619.28	-2.60
619.63	-13.90
619.98	-5.54
620.33	-22.82
620.68	-11.30
621.03	-27.12
621.38	-16.84
621.73	-12.32
622.08	0.68
622.43	-16.27
622.78	-15.48
623.13	-20.11
623.48	-5.20
623.82	-25.42
624.17	-9.38
624.52	-25.08
624.87	-22.37
625.22	-25.76
625.57	-10.28
625.92	-18.53
626.27	-27.68
626.62	-24.18
626.97	-21.02
627.32	-25.99
627.66	-21.81
628.01	-14.35
628.36	-22.94
628.71	-32.20
629.06	-22.94
629.41	-16.50
629.76	-14.69
630.11	-18.19
630.45	-9.27
630.80	-25.65
631.15	-14.12
631.50	-35.48
631.85	-20.11
632.20	-30.62
632.54	-19.77
632.89	-32.54
633.24	-3.16
633.59	-11.98
633.94	-4.97
634.29	-29.26
634.63	-16.61
634.98	-9.38
635.33	-29.83
635.68	-27.80
636.02	-18.87
636.37	-43.95
636.72	-13.56
637.07	-31.64
637.42	-12.77
637.76	-25.88
638.11	-21.81
638.46	-28.81
638.81	-0.68
639.15	-30.06
639.50	-19.66
639.85	-23.05
640.20	-11.98
640.54	-17.40
640.89	-13.67
641.24	2.15
641.58	1.13
641.93	3.95
642.28	-7.34
642.63	-18.53
642.97	-41.13
643.32	4.29
643.67	-19.89
644.01	-15.03
644.36	-23.62
644.71	-29.38
645.05	-10.96
645.40	-6.44
645.75	-31.75
646.09	-22.82
646.44	-2.71
646.79	-11.53
647.13	-23.39
647.48	-11.98
647.83	-17.97
648.17	-13.56
648.52	-7.01
648.86	-18.76
649.21	-21.24
649.56	-19.89
649.90	-16.84
650.25	-20.68
650.60	-13.22
650.94	-11.19
651.29	-8.02
651.63	-5.99
651.98	-5.20
652.33	-22.60
652.67	-11.75
653.02	-24.07
653.36	-15.93
653.71	-0.79
654.05	-25.54
654.40	-9.72
654.74	-16.16
655.09	-11.30
655.44	-11.19
655.78	-6.44
656.13	-10.06
656.47	-20.11
656.82	-18.42
657.16	-16.72
657.51	-22.37
657.85	-16.16
658.20	-14.80
658.54	-16.61
658.89	-6.33
659.23	4.07
659.58	9.60
659.92	-1.47
660.27	-16.16
660.61	-6.55
660.96	-13.78
661.30	-2.26
661.65	-11.64
661.99	-14.91
662.33	-5.65
662.68	-19.32
663.02	-1.69
663.37	8.47
663.71	0.45
664.06	1.81
664.40	-7.57
664.75	-8.59
665.09	-17.17
665.43	15.37
665.78	-4.18
666.12	8.93
666.47	6.89
666.81	12.88
667.15	6.44
667.50	-1.58
667.84	14.91
668.19	6.55
668.53	4.41
668.87	-8.02
669.22	18.42
669.56	5.65
669.90	13.90
670.25	12.09
670.59	13.67
670.93	23.95
671.28	30.39
671.62	22.03
671.96	11.41
672.31	40.45
672.65	38.53
672.99	36.95
673.34	27.00
673.68	22.37
674.02	31.75
674.37	33.33
674.71	26.21
675.05	27.68
675.40	23.84
675.74	32.65
676.08	44.63
676.42	59.43
676.77	31.75
677.11	39.55
677.45	59.21
677.79	51.98
678.14	48.36
678.48	70.05
678.82	61.69
679.16	49.83
679.51	68.02
679.85	51.98
680.19	79.09
680.53	45.08
680.88	89.60
681.22	67.00
681.56	62.03
681.90	84.97
682.24	88.47
682.59	58.98
682.93	98.98
683.27	95.25
683.61	91.30
683.95	76.61
684.29	85.31
684.64	95.59
684.98	99.21
685.32	91.07
685.66	107.45
686.00	118.41
686.34	85.20
686.69	100.79
687.03	116.83
687.37	103.61
687.71	143.61
688.05	130.51
688.39	125.53
688.73	140.22
689.07	154.35
689.41	148.47
689.76	128.92
690.10	148.36
690.44	148.92
690.78	140.79
691.12	155.82
691.46	148.58
691.80	176.83
692.14	168.92
692.48	194.57
692.82	185.53
693.16	208.02
693.50	212.65
693.84	218.19
694.18	212.99
694.53	213.78
694.87	235.36
695.21	231.29
695.55	225.42
695.89	215.81
696.23	268.69
696.57	249.03
696.91	274.91
697.25	278.30
697.59	284.06
697.93	296.04
698.27	302.36
698.61	294.91
698.95	314.57
699.29	330.73
699.63	341.12
699.97	319.88
700.30	343.04
700.64	360.33
700.98	375.02
701.32	386.88
701.66	381.46
702.00	393.21
702.34	401.01
702.68	404.28
703.02	439.08
703.36	453.32
703.70	459.42
704.04	477.61
704.38	474.56
704.72	505.75
705.05	504.05
705.39	506.09
705.73	516.48
706.07	537.95
706.41	540.44
706.75	569.14
707.09	594.00
707.43	591.06
707.77	601.34
708.10	613.20
708.44	639.98
708.78	662.24
709.12	665.63
709.46	678.63
709.80	697.16
710.13	740.32
710.47	743.60
710.81	750.38
711.15	772.52
711.49	800.77
711.82	819.75
712.16	839.19
712.50	861.90
712.84	859.98
713.18	874.21
713.51	911.73
713.85	938.96
714.19	948.11
714.53	968.45
714.87	1018.39
715.20	1023.25
715.54	1027.20
715.88	1072.85
716.22	1083.14
716.55	1127.43
716.89	1145.17
717.23	1168.10
717.57	1195.90
717.90	1232.17
718.24	1240.31
718.58	1302.23
718.91	1306.52
719.25	1353.07
719.59	1364.14
719.93	1422.11
720.26	1441.21
720.60	1499.06
720.94	1521.32
721.27	1574.42
721.61	1587.30
721.95	1617.70
722.28	1669.33
722.62	1715.55
722.96	1770.80
723.29	1801.08
723.63	1838.14
723.97	1874.53
724.30	1924.47
724.64	1933.28
724.97	2018.48
725.31	2084.35
725.65	2102.20
725.98	2173.50
726.32	2214.52
726.66	2277.68
726.99	2356.10
727.33	2387.62
727.66	2434.06
728.00	2507.73
728.33	2590.10
728.67	2671.46
729.01	2697.10
729.34	2768.40
729.68	2848.96
730.01	2886.59
730.35	2979.02
730.68	3050.99
731.02	3120.03
731.36	3194.38
731.69	3266.35
732.03	3363.30
732.36	3439.23
732.70	3498.55
733.03	3592.00
733.37	3661.60
733.70	3778.66
734.04	3835.38
734.37	3905.32
734.71	3991.42
735.04	4130.74
735.38	4209.49
735.71	4315.25
736.05	4424.74
736.38	4484.51
736.72	4551.41
737.05	4671.29
737.38	4764.28
737.72	4862.02
738.05	4992.19
738.39	5061.79
738.72	5171.28
739.06	5261.56
739.39	5378.73
739.73	5465.28
740.06	5596.01
740.39	5670.92
740.73	5820.86
741.06	5954.08
741.40	6026.28
741.73	6186.50
742.06	6255.32
742.40	6387.18
742.73	6452.26
743.07	6599.49
743.40	6726.72
743.73	6877.45
744.07	6963.09
744.40	7122.41
744.73	7279.13
745.07	7381.27
745.40	7505.23
745.73	7679.69
746.07	7780.70
746.40	7830.98
746.73	8008.38
747.07	8114.36
747.40	8248.94
747.73	8417.52
748.07	8471.19
748.40	8679.32
748.73	8805.08
749.07	9012.42
749.40	9097.73
749.73	9267.67
750.06	9365.74
750.40	9495.12
750.73	9692.40
751.06	9778.50
751.40	9963.13
751.73	10136.34
752.06	10338.15
752.39	10382.33
752.73	10555.65
753.06	10688.65
753.39	10798.59
753.72	10985.36
754.05	11135.30
754.39	11249.08
754.72	11431.56
755.05	11680.48
755.38	11748.28
755.72	11871.55
756.05	12024.09
756.38	12176.97
756.71	12325.66
757.04	12450.18
757.37	12558.54
757.71	12756.16
758.04	12806.22
758.37	13009.71
758.70	13065.65
759.03	13256.26
759.36	13441.45
759.70	13601.68
760.03	13686.76
760.36	13814.10
760.69	14026.30
761.02	14135.11
761.35	14190.02
761.68	14399.40
762.01	14507.75
762.35	14638.49
762.68	14685.94
763.01	14924.35
763.34	15042.32
763.67	15016.33
764.00	15150.22
764.33	15238.92
764.66	15230.22
764.99	15386.15
765.32	15452.02
765.65	15622.53
765.98	15811.00
766.31	15650.77
766.65	15658.57
766.98	15690.43
767.31	15798.34
767.64	15924.10
767.97	15786.03
768.30	15816.99
768.63	15946.02
768.96	15783.20
769.29	15829.30
769.62	15766.70
769.95	15826.25
770.28	15829.98
770.61	15727.61
770.94	15801.62
771.27	15787.61
771.60	15780.38
771.93	15695.07
772.26	15652.70
772.59	15569.76
772.92	15547.27
773.24	15532.25
773.57	15577.78
773.90	15333.95
774.23	15406.04
774.56	15331.01
774.89	15231.24
775.22	15038.81
775.55	15096.44
775.88	14860.85
776.21	14756.45
776.54	14645.26
776.87	14485.49
777.19	14397.93
777.52	14413.63
777.85	14202.45
778.18	14105.17
778.51	13923.59
778.84	13842.46
779.17	13764.72
779.50	13626.42
779.82	13495.46
780.15	13196.83
780.48	13122.25
780.81	13001.47
781.14	12924.63
781.47	12847.35
781.80	12585.32
782.12	12513.80
782.45	12344.31
782.78	12250.19
783.11	12076.41
783.44	11916.52
783.76	11820.48
784.09	11527.72
784.42	11507.49
784.75	11295.64
785.08	11201.29
785.40	11038.47
785.73	10864.35
786.06	10589.78
786.39	10564.24
786.71	10412.95
787.04	10264.93
787.37	10106.51
787.70	9914.65
788.02	9781.55
788.35	9567.21
788.68	9386.87
789.00	9303.82
789.33	9084.85
789.66	8971.74
789.99	8737.62
790.31	8611.75
790.64	8539.66
790.97	8306.34
791.29	8294.36
791.62	8121.26
791.95	7940.70
792.27	7772.56
792.60	7697.88
792.93	7559.80
793.25	7359.81
793.58	7290.77
793.91	7116.08
794.23	6956.09
794.56	6824.91
794.89	6686.04
795.21	6650.79
795.54	6430.68
795.87	6384.24
796.19	6213.85
796.52	6094.30
796.84	5977.13
797.17	5868.66
797.50	5788.77
797.82	5630.25
798.15	5518.16
798.47	5417.48
798.80	5245.51
799.12	5196.36
799.45	5076.02
799.78	4957.04
800.10	4840.21
800.43	4723.15
800.75	4602.25
801.08	4502.37
801.40	4433.33
801.73	4292.77
802.05	4162.38
802.38	4096.73
802.70	4020.01
803.03	3881.59
803.35	3801.37
803.68	3715.16
804.00	3628.38
804.33	3538.78
804.65	3448.84
804.98	3336.30
805.30	3204.77
805.63	3133.93
805.95	3061.73
806.28	2976.87
806.60	2831.11
806.93	2804.45
807.25	2715.07
807.58	2677.33
807.90	2584.23
808.22	2488.86
808.55	2428.18
808.87	2360.95
809.20	2293.95
809.52	2241.30
809.85	2146.61
810.17	2089.89
810.49	2017.46
810.82	1971.13
811.14	1931.02
811.47	1852.61
811.79	1801.08
812.11	1731.48
812.44	1678.26
812.76	1626.40
813.08	1571.03
813.41	1511.26
813.73	1481.77
814.05	1439.74
814.38	1383.69
814.70	1321.77
815.02	1281.44
815.35	1259.18
815.67	1197.03
815.99	1207.31
816.32	1144.94
816.64	1097.03
816.96	1081.44
817.29	1052.74
817.61	1015.23
817.93	975.79
818.26	960.99
818.58	899.30
818.90	873.31
819.22	851.39
819.55	824.05
819.87	805.40
820.19	797.61
820.51	734.78
820.84	727.10
821.16	702.13
821.48	671.28
821.80	655.01
822.13	635.46
822.45	617.84
822.77	602.58
823.09	585.97
823.41	591.28
823.74	546.20
824.06	523.38
824.38	516.82
824.70	485.07
825.02	473.21
825.35	497.28
825.67	456.49
825.99	460.10
826.31	445.86
826.63	441.34
826.95	393.66
827.27	413.55
827.60	397.62
827.92	382.59
828.24	367.33
828.56	362.02
828.88	326.43
829.20	331.18
829.52	322.48
829.84	317.84
830.17	309.71
830.49	304.06
830.81	277.05
831.13	271.74
831.45	265.64
831.77	267.00
832.09	261.58
832.41	232.76
832.73	241.58
833.05	250.84
833.37	247.79
833.69	214.68
834.01	224.29
834.33	209.60
834.65	197.85
834.97	199.20
835.29	208.70
835.61	179.77
835.94	194.23
836.26	189.71
836.58	175.48
836.90	157.40
837.21	170.28
837.53	161.46
837.85	156.72
838.17	163.39
838.49	142.14
838.81	132.88
839.13	143.05
839.45	131.97
839.77	125.19
840.09	116.27
840.41	111.75
840.73	102.94
841.05	104.29
841.37	116.16
841.69	98.53
842.01	98.08
842.33	113.78
842.65	73.67
842.96	78.30
843.28	96.61
843.60	71.30
843.92	72.43
844.24	85.87
844.56	78.42
844.88	62.26
845.20	57.85
845.52	64.18
845.83	59.43
846.15	52.77
846.47	66.33
846.79	59.32
847.11	48.59
847.43	41.24
847.74	54.35
848.06	33.33
848.38	49.49
848.70	46.44
849.02	41.81
849.33	15.25
849.65	40.90
849.97	44.29
850.29	32.88
850.61	20.34
850.92	23.28
851.24	22.03
851.56	21.47
851.88	33.45
852.19	21.81
852.51	10.17
852.83	20.23
853.15	-2.60
853.46	0.45
853.78	13.67
854.10	14.01
854.42	18.19
854.73	5.42
855.05	-9.72
855.37	-8.59
855.68	14.80
856.00	12.99
856.32	3.05
856.63	-14.58
856.95	-7.23
857.27	-1.02
857.59	3.95
857.90	2.15
858.22	-6.10
858.53	0.90
858.85	13.11
859.17	11.30
859.48	3.50
859.80	-10.51
860.12	0.45
860.43	-14.35
860.75	-8.59
861.07	6.55
861.38	-18.76
861.70	5.65
862.01	-15.93
862.33	-11.53
862.65	-5.31
862.96	-2.94
863.28	-16.16
863.59	-8.47
863.91	-4.18
864.22	-3.16
864.54	-19.55
864.86	0.79
865.17	-15.03
865.49	-10.62
865.80	0.79
866.12	-6.55
866.43	-11.07
866.75	-20.45
867.06	-17.29
867.38	-10.96
867.69	-10.73
868.01	-26.89
868.32	-17.06
868.64	-10.06
868.95	-21.13
869.27	-0.56
869.58	-13.56
869.90	-18.98
870.21	-12.20
870.53	-8.59
870.84	-6.33
871.15	-6.10
871.47	-8.02
871.78	-6.78
872.10	-21.13
872.41	-17.17
872.73	-14.58
873.04	-17.51
873.36	-35.03
873.67	-24.86
873.98	-22.94
874.30	-11.53
874.61	-18.42
874.93	-35.25
875.24	-13.56
875.55	-1.36
875.87	-6.10
876.18	-12.54
876.49	-21.58
876.81	-5.76
877.12	-2.37
877.43	-27.34
877.75	-27.23
878.06	5.20
878.37	-24.97
878.69	0.00
879.00	-20.79
879.31	-4.63
879.63	-8.36
879.94	-19.32
880.25	-13.11
880.57	-15.71
880.88	-13.90
881.19	1.69
881.50	-24.52
881.82	-13.67
882.13	-14.35
882.44	-27.46
882.76	-40.11
883.07	-9.49
883.38	-7.46
883.69	-19.66
884.01	-30.62
884.32	-22.15
884.63	-38.19
884.94	-20.45
885.25	-15.71
885.57	-12.43
885.88	-6.67
886.19	-12.20
886.50	-19.10
886.81	-22.26
887.13	-12.20
887.44	-17.06
887.75	-5.42
888.06	-20.68
888.37	-14.91
888.69	-26.21
889.00	-30.39
889.31	-4.07
889.62	-31.75
889.93	-25.08
890.24	-17.17
890.55	-21.36
890.87	-18.30
891.18	-8.81
891.49	3.39
891.80	-16.61
892.11	-28.70
892.42	-6.44
892.73	-16.50
893.04	-14.46
893.35	-9.27
893.66	-16.72
893.98	-39.89
894.29	-29.38
894.60	-33.67
894.91	-4.75
895.22	-22.49
895.53	-19.55
895.84	-10.85
896.15	-10.62
896.46	-9.15
896.77	-21.81
897.08	-32.54
897.39	-17.40
897.70	-9.60
898.01	-16.95
898.32	-34.69
898.63	-8.81
898.94	-9.60
899.25	-15.14
899.56	-13.56
899.87	-16.50
900.18	-13.33
900.49	-22.82
900.80	-15.82
901.11	-19.55
901.42	-13.11
901.73	-9.38
902.04	0.34
902.35	-22.26
902.66	-25.99
902.96	-11.75
903.27	-18.98
903.58	-24.86
903.89	-20.79
904.20	-14.12
904.51	-25.99
904.82	-37.97
905.13	-42.94
905.44	-33.78
905.75	-34.58
906.05	-21.13
906.36	-22.37
906.67	-21.69
906.98	-11.19
907.29	-19.10
907.60	-10.96
907.91	-19.77
908.21	-12.88
908.52	-24.63
908.83	-20.68
909.14	-18.98
909.45	-44.18
909.75	-8.70
910.06	-7.57
910.37	-8.14
910.68	-17.85
910.99	-5.20
911.29	-12.32
911.60	-45.99
911.91	-25.42
912.22	-20.34
912.52	-38.42
912.83	-23.39
913.14	-23.39
913.45	-43.28
913.75	-27.00
914.06	-25.76
914.37	-30.28
914.68	-3.73
914.98	-29.15
915.29	-39.55
915.60	-23.62
915.91	-15.59
916.21	-23.73
916.52	-28.70
916.83	-31.64
917.13	-16.72
917.44	-17.85
917.75	-12.66
918.05	-16.38
918.36	-18.30
918.67	-23.16
918.97	-29.94
919.28	-5.65
919.59	-35.82
919.89	-27.12
920.20	-32.65
920.50	-25.42
920.81	-22.60
921.12	-28.70
921.42	-30.85
921.73	-38.76
922.03	-37.29
922.34	-24.97
922.65	-21.69
922.95	-22.03
923.26	-31.52
923.56	-27.91
923.87	-22.71
924.18	-28.93
924.48	-22.71
924.79	-14.91
925.09	-8.25
925.40	-22.71
925.70	-29.04
926.01	-0.68
926.31	-4.07
926.62	-39.66
926.92	-27.12
927.23	-38.98
927.53	-15.25
927.84	-7.01
928.14	-28.13
928.45	-20.34
928.75	-17.29
929.06	-11.19
929.36	-12.32
929.67	-29.04
929.97	-27.80
930.28	-10.06
930.58	-18.53
930.89	-31.07
931.19	-25.99
931.49	-21.13
931.80	-35.37
932.10	-9.49
932.41	-27.80
932.71	-27.57
933.01	-27.34
933.32	-11.53
933.62	-18.76
933.93	-15.14
934.23	-15.71
934.53	-24.18
934.84	-9.38
935.14	-20.79
935.45	-38.08
935.75	-37.85
936.05	-11.53
936.36	-23.62
936.66	-7.57
936.96	-21.81
937.27	-34.01
937.57	-19.77
937.87	-25.88
938.18	-19.66
938.48	-22.71
938.78	-26.10
939.08	-55.93
939.39	-22.49
939.69	-16.72
939.99	-29.49
940.30	-23.73
940.60	-25.76
940.90	-26.21
941.20	-38.98
941.51	-23.28
941.81	-20.45
942.11	-30.06
942.41	-29.94
942.72	-23.62
943.02	-22.94
943.32	-17.97
943.62	-30.17
943.93	-20.56
944.23	-19.66
944.53	-32.32
944.83	-20.68
945.13	-20.23
945.44	-23.16
945.74	-26.78
946.04	-35.37
946.34	-18.53
946.64	-36.72
946.94	-16.27
947.25	-21.69
947.55	-40.79
947.85	-3.73
948.15	-6.10
948.45	-27.80
948.75	-45.08
949.05	-30.51
949.35	-13.56
949.66	-23.73
949.96	-4.07
950.26	-25.31
950.56	-20.56
950.86	-24.86
951.16	-50.17
951.46	-19.66
951.76	-19.32
952.06	-16.04
952.36	-25.31
952.66	-27.23
952.96	-24.07
953.26	-27.34
953.57	-21.02
953.87	-16.50
954.17	-13.33
954.47	-12.99
954.77	-25.31
955.07	-6.55
955.37	-7.34
955.67	-10.73
955.97	-23.28
956.27	-14.24
956.57	-19.10
956.87	-21.13
957.17	-26.67
957.47	-22.94
957.77	-6.55
958.06	-29.49
958.36	-33.56
958.66	-14.24
958.96	-29.60
959.26	-18.98
959.56	-24.07
959.86	-25.54
960.16	-21.69
960.46	-25.54
960.76	-28.93
961.06	-29.72
961.36	-29.72
961.66	-1.92
961.95	-25.20
962.25	-7.91
962.55	-15.71
962.85	-4.52
963.15	-24.18
963.45	-14.58
963.75	-9.38
964.05	-8.93
964.34	-7.57
964.64	-25.88
964.94	-30.73
965.24	-39.89
965.54	-27.00
965.83	-18.30
966.13	-16.38
966.43	-31.75
966.73	-8.25
967.03	-23.62
967.32	-27.12
967.62	-14.91
967.92	-30.51
968.22	-33.22
968.52	-26.44
968.81	-36.95
969.11	-31.41
969.41	-28.36
969.71	-22.49
970.00	-5.76
970.30	-6.89
970.60	-15.71
970.90	-19.21
971.19	-19.77
971.49	-28.81
971.79	-35.71
972.08	-8.70
972.38	-40.56
972.68	-23.84
972.97	-19.77
973.27	-19.89
973.57	-22.60
973.87	-6.67
974.16	-18.64
974.46	-18.53
974.75	-41.35
975.05	-29.83
975.35	-5.42
975.64	-43.84
975.94	-30.28
976.24	-22.71
976.53	-18.76
976.83	-9.60
977.13	-27.23
977.42	-10.62
977.72	-7.91
978.01	-40.11
978.31	-24.63
978.60	-25.31
978.90	-33.90
979.20	-29.26
979.49	-17.63
979.79	-32.88
980.08	-10.62
980.38	-10.40
980.67	-26.33
980.97	-39.89
981.26	-33.67
981.56	-11.53
981.86	-11.75
982.15	-24.07
982.45	-29.26
982.74	-24.18
983.04	-19.55
983.33	-31.30
983.63	-29.38
983.92	-25.76
984.21	-16.72
984.51	-33.56
984.80	-25.65
985.10	-44.18
985.39	-33.56
985.69	-24.75
985.98	-50.28
986.28	-29.49
986.57	-19.10
986.87	-6.21
987.16	-19.43
987.45	-22.71
987.75	-27.57
988.04	-9.04
988.34	-23.62
988.63	-21.13
988.92	-23.84
989.22	-28.36
989.51	-37.29
989.80	-28.59
990.10	-5.31
990.39	-37.29
990.69	-18.42
990.98	-30.85
991.27	-15.82
991.57	-9.27
991.86	-22.15
992.15	-18.64
992.45	-40.45
992.74	-7.46
993.03	-15.48
993.33	-18.08
993.62	-18.30
993.91	-25.54
994.20	-22.49
994.50	-40.56
994.79	-17.51
995.08	-35.93
995.37	-19.10
995.67	-23.05
995.96	-35.82
996.25	-14.01
996.54	-2.94
996.84	-6.55
997.13	-30.85
997.42	-28.36
997.71	-37.29
998.01	-25.08
998.30	-26.55
998.59	-5.76
998.88	-37.51
999.17	-24.29
999.47	-5.54
999.76	-10.51
1000.05	-11.98
1000.34	-27.46
1000.63	-36.38
1000.92	-0.11
1001.22	-8.25
1001.51	-14.58
1001.80	-20.00
1002.09	-34.35
1002.38	-11.41
1002.67	-18.64
1002.96	-21.36
1003.26	-20.68
1003.55	-19.32
1003.84	-13.33
1004.13	-23.28
1004.42	-36.50
1004.71	-48.02
1005.00	-23.95
1005.29	-29.26
1005.58	-13.67
1005.87	-17.85
1006.16	-11.86
1006.45	-26.78
1006.74	-26.67
1007.04	-25.31
1007.33	-9.94
1007.62	-27.68
1007.91	-19.21
1008.20	-44.52
1008.49	-26.21
1008.78	-25.20
1009.07	-22.37
1009.36	-21.58
1009.65	-30.51
1009.94	-28.59
1010.23	-26.33
1010.52	-22.82
1010.81	-17.06
1011.10	-13.45
1011.38	-41.92
1011.67	-28.36
1011.96	3.39
1012.25	-20.11
1012.54	-27.68
1012.83	-24.18
1013.12	-31.52
1013.41	-37.97
1013.70	-19.89
1013.99	-32.43
1014.28	-19.66
1014.57	-34.46
1014.86	-29.49
1015.14	-16.27
1015.43	-28.13
1015.72	-25.31
1016.01	-24.75
1016.30	-23.95
1016.59	-27.68
1016.88	-22.71
1017.16	-21.36
1017.45	-26.33
1017.74	-29.15
1018.03	-25.54
1018.32	-17.06
1018.61	-40.90
1018.89	-5.76
1019.18	-12.32
1019.47	-14.12
1019.76	-30.28
1020.05	-24.18
1020.33	-16.72
1020.62	-13.11
1020.91	-22.37
1021.20	-38.98
1021.48	-35.59
1021.77	-29.15
1022.06	-16.27
1022.35	-14.46
1022.63	-25.88
1022.92	-27.00
1023.21	10.06
1023.50	-48.47
1023.78	-27.12
1024.07	-20.11
1024.36	-17.74
1024.64	-16.27
1024.93	-22.37
1025.22	-32.88
1025.50	-30.73
1025.79	-25.20
1026.08	-8.70
1026.36	-22.71
1026.65	-38.64
1026.94	-17.40
1027.22	-35.37
1027.51	-15.71
1027.80	-2.26
1028.08	-8.70
1028.37	-35.71
1028.66	-26.33
1028.94	-31.86
>>>>>End Processed Spectral Data<<<<<
