SpectraSuite Data File
++++++++++++++++++++++++++++++++++++
Date: Thu Jun 15 11:37:38 BST 2017
User: Eng0000912
Dark Spectrum Present: Yes
Reference Spectrum Present: No
Number of Sampled Component Spectra: 1
Spectrometers: USB2+H04851
Integration Time (usec): 100000 (USB2+H04851)
Spectra Averaged: 20 (USB2+H04851)
Boxcar Smoothing: 0 (USB2+H04851)
Correct for Electrical Dark: No (USB2+H04851)
Strobe/Lamp Enabled: No (USB2+H04851)
Correct for Detector Non-linearity: No (USB2+H04851)
Correct for Stray Light: No (USB2+H04851)
Number of Pixels in Processed Spectrum: 2048
>>>>>Begin Processed Spectral Data<<<<<
340.07	-15.03
340.45	-15.03
340.82	-15.03
341.20	-21.47
341.58	-13.78
341.96	-15.48
342.34	-29.04
342.72	-21.24
343.10	-21.02
343.48	-32.65
343.85	-32.88
344.23	-17.51
344.61	-14.58
344.99	-12.99
345.37	-8.36
345.75	-32.88
346.13	-32.54
346.50	-7.34
346.88	0.00
347.26	-21.69
347.64	-20.68
348.02	-22.60
348.40	-21.13
348.77	-0.23
349.15	-12.77
349.53	-15.37
349.91	-18.76
350.29	-12.20
350.66	-23.39
351.04	-15.37
351.42	-7.46
351.80	-23.39
352.18	-23.28
352.55	-4.29
352.93	-10.17
353.31	-13.11
353.69	-16.27
354.07	-14.46
354.44	-1.13
354.82	-22.03
355.20	-26.67
355.58	-13.33
355.95	-24.07
356.33	-18.53
356.71	-18.08
357.09	-24.41
357.46	-17.85
357.84	-8.47
358.22	-3.95
358.60	-35.59
358.97	-8.70
359.35	-16.72
359.73	-4.52
360.10	-8.81
360.48	-15.48
360.86	-16.95
361.24	-18.19
361.61	-8.93
361.99	-34.01
362.37	-19.32
362.74	-21.13
363.12	-17.29
363.50	-25.08
363.87	-26.44
364.25	-35.03
364.63	-43.50
365.01	-38.42
365.38	-29.38
365.76	-18.98
366.14	-11.75
366.51	-19.66
366.89	-8.25
367.27	-19.10
367.64	3.16
368.02	-19.21
368.39	-1.36
368.77	-22.26
369.15	-30.17
369.52	-1.58
369.90	-26.55
370.28	-17.40
370.65	-5.08
371.03	-13.11
371.40	-37.74
371.78	-20.11
372.16	-17.40
372.53	-11.07
372.91	-5.65
373.28	-17.51
373.66	-17.74
374.04	-32.20
374.41	-15.48
374.79	-7.80
375.16	-23.39
375.54	-37.85
375.92	-12.43
376.29	-16.95
376.67	-22.71
377.04	-18.30
377.42	-12.88
377.79	-22.60
378.17	-18.64
378.55	-25.42
378.92	-8.25
379.30	-25.88
379.67	-35.71
380.05	12.77
380.42	-12.32
380.80	-32.65
381.17	-24.07
381.55	-20.00
381.92	-21.92
382.30	-30.85
382.67	-23.05
383.05	4.18
383.42	-21.02
383.80	-24.41
384.17	-20.34
384.55	-23.05
384.92	-23.16
385.30	-27.57
385.67	-26.67
386.05	-28.13
386.42	-16.61
386.80	-15.48
387.17	-16.16
387.55	-40.56
387.92	-7.12
388.30	-21.92
388.67	-23.39
389.04	-25.88
389.42	-28.13
389.79	-22.03
390.17	-18.98
390.54	-17.40
390.92	-8.14
391.29	-17.85
391.67	-10.40
392.04	-12.20
392.41	-11.30
392.79	-37.51
393.16	-22.71
393.54	-15.03
393.91	-24.18
394.28	-1.36
394.66	-30.73
395.03	-30.96
395.41	-16.61
395.78	-1.47
396.15	-18.98
396.53	-28.25
396.90	-7.01
397.28	-13.67
397.65	-2.03
398.02	-15.82
398.40	-22.49
398.77	-6.10
399.14	-31.41
399.52	-26.21
399.89	-23.84
400.26	-18.30
400.64	-4.97
401.01	-1.02
401.38	3.39
401.76	-16.72
402.13	6.10
402.50	18.08
402.88	-14.91
403.25	-2.03
403.62	-29.60
404.00	-19.43
404.37	-18.87
404.74	-23.28
405.12	-44.86
405.49	-12.77
405.86	-10.51
406.23	-30.85
406.61	-9.49
406.98	-19.10
407.35	-35.37
407.73	-21.02
408.10	-0.34
408.47	-6.33
408.84	-12.66
409.22	-18.08
409.59	-5.42
409.96	-22.60
410.33	-38.64
410.71	-28.81
411.08	-17.85
411.45	-10.73
411.82	-7.91
412.20	-4.29
412.57	-9.15
412.94	-14.01
413.31	-39.89
413.68	-29.38
414.06	-24.18
414.43	-24.18
414.80	-26.21
415.17	-3.84
415.55	-20.68
415.92	-8.81
416.29	-24.97
416.66	-32.43
417.03	-21.47
417.40	-21.47
417.78	-7.12
418.15	-14.46
418.52	6.55
418.89	-5.42
419.26	-25.88
419.63	-8.70
420.01	-11.86
420.38	-19.43
420.75	-15.59
421.12	-15.37
421.49	-27.46
421.86	-3.62
422.23	-6.67
422.61	-2.26
422.98	-33.90
423.35	-26.21
423.72	-20.34
424.09	-31.19
424.46	-4.41
424.83	-38.64
425.20	-17.97
425.58	-11.53
425.95	-16.50
426.32	-25.76
426.69	-16.95
427.06	-3.50
427.43	-16.72
427.80	-9.94
428.17	-31.07
428.54	-2.49
428.91	-14.91
429.28	-0.45
429.65	-31.98
430.02	-5.08
430.40	-15.25
430.77	-14.24
431.14	-27.68
431.51	-4.18
431.88	-5.54
432.25	-10.62
432.62	-34.46
432.99	-18.98
433.36	-23.95
433.73	-25.31
434.10	-22.37
434.47	-23.16
434.84	-26.89
435.21	-1.02
435.58	-6.89
435.95	-18.30
436.32	-19.55
436.69	-22.60
437.06	-8.25
437.43	-14.58
437.80	-24.29
438.17	-13.45
438.54	-9.72
438.91	-4.97
439.28	-2.37
439.65	-32.43
440.02	-35.14
440.39	-12.20
440.76	-41.58
441.13	-16.27
441.49	-22.82
441.86	-15.71
442.23	-16.27
442.60	-13.78
442.97	-14.35
443.34	-10.96
443.71	-34.58
444.08	-35.93
444.45	-0.68
444.82	-12.66
445.19	-13.11
445.56	-17.51
445.93	-23.62
446.29	-14.12
446.66	-25.88
447.03	-25.54
447.40	-12.09
447.77	-14.12
448.14	-17.85
448.51	-23.62
448.88	9.83
449.24	-7.68
449.61	-14.46
449.98	-19.43
450.35	-12.66
450.72	-18.53
451.09	-5.88
451.46	-30.96
451.82	-5.88
452.19	-13.11
452.56	-16.04
452.93	0.68
453.30	-11.98
453.67	-8.59
454.03	-34.80
454.40	-27.12
454.77	-5.31
455.14	-27.00
455.51	-38.30
455.87	-32.54
456.24	-17.51
456.61	-12.32
456.98	-12.09
457.35	-24.41
457.71	-12.43
458.08	-34.35
458.45	2.03
458.82	-19.43
459.19	-32.20
459.55	-21.36
459.92	-23.16
460.29	-21.69
460.66	-20.90
461.02	-22.26
461.39	-7.23
461.76	-13.22
462.13	-25.08
462.49	-5.31
462.86	-17.74
463.23	-19.43
463.59	-20.68
463.96	-21.58
464.33	-7.91
464.70	-6.33
465.06	-17.74
465.43	-14.80
465.80	-19.55
466.16	-40.45
466.53	-18.64
466.90	-21.36
467.26	-29.83
467.63	-31.52
468.00	-20.00
468.36	-15.14
468.73	-16.50
469.10	-18.53
469.46	-6.78
469.83	-23.05
470.20	-34.91
470.56	-22.82
470.93	-35.03
471.30	-11.98
471.66	-20.11
472.03	-15.93
472.40	-16.84
472.76	-14.80
473.13	-27.91
473.50	-24.41
473.86	3.28
474.23	-19.21
474.59	-21.13
474.96	-36.72
475.33	-16.84
475.69	-18.98
476.06	-23.73
476.42	-12.99
476.79	-21.47
477.16	0.79
477.52	-22.49
477.89	-28.13
478.25	-14.46
478.62	-10.06
478.98	-17.40
479.35	1.02
479.72	-6.55
480.08	-4.18
480.45	-25.65
480.81	-24.52
481.18	-40.00
481.54	-37.29
481.91	-22.49
482.27	-13.67
482.64	-1.58
483.00	-10.96
483.37	-19.43
483.73	-34.35
484.10	-29.15
484.46	-28.93
484.83	-6.33
485.19	-12.66
485.56	-22.26
485.92	-3.05
486.29	-13.22
486.65	-16.84
487.02	-16.61
487.38	-23.28
487.75	-9.60
488.11	-24.86
488.48	-23.28
488.84	-15.59
489.21	-27.46
489.57	-43.50
489.94	-39.89
490.30	-8.14
490.66	-15.48
491.03	-13.90
491.39	-5.76
491.76	-27.68
492.12	-14.46
492.49	-11.41
492.85	-10.73
493.21	-27.80
493.58	-15.82
493.94	14.69
494.31	-23.28
494.67	-14.24
495.03	-23.84
495.40	-16.27
495.76	-26.44
496.13	-8.47
496.49	-14.69
496.85	-22.49
497.22	-21.13
497.58	-15.48
497.94	-9.72
498.31	-2.26
498.67	-29.04
499.04	-19.55
499.40	-12.54
499.76	-3.95
500.13	-14.69
500.49	-9.38
500.85	-30.06
501.22	-16.72
501.58	-20.00
501.94	9.04
502.31	-9.94
502.67	2.82
503.03	-20.23
503.40	-7.34
503.76	-36.38
504.12	-14.01
504.48	-26.89
504.85	-4.63
505.21	-29.04
505.57	-25.20
505.94	-12.88
506.30	-5.54
506.66	-12.54
507.02	-28.13
507.39	-19.89
507.75	-22.15
508.11	-28.25
508.47	-6.89
508.84	-9.60
509.20	-9.94
509.56	-15.14
509.92	-19.77
510.29	-10.06
510.65	-31.98
511.01	-29.04
511.37	-28.59
511.74	-21.13
512.10	-10.96
512.46	0.90
512.82	-10.73
513.18	-14.35
513.55	-22.60
513.91	-9.38
514.27	-14.58
514.63	-20.23
514.99	-22.37
515.35	-18.42
515.72	-24.29
516.08	-29.60
516.44	-26.78
516.80	-24.52
517.16	-26.89
517.52	-18.30
517.89	-23.62
518.25	-30.28
518.61	-11.98
518.97	-13.67
519.33	-13.67
519.69	0.90
520.05	-17.85
520.42	-35.48
520.78	-6.33
521.14	-21.81
521.50	-27.80
521.86	-22.49
522.22	-10.40
522.58	-20.56
522.94	-30.39
523.30	-16.84
523.67	-0.79
524.03	-29.83
524.39	-23.28
524.75	-23.39
525.11	-21.36
525.47	-19.55
525.83	-16.50
526.19	-19.55
526.55	3.28
526.91	-10.40
527.27	-1.69
527.63	-19.32
527.99	-18.87
528.35	0.56
528.71	-2.60
529.07	-15.25
529.43	-11.53
529.79	-21.24
530.15	11.98
530.51	-22.26
530.87	-8.81
531.23	-6.33
531.59	-13.56
531.95	-23.73
532.31	-38.19
532.67	-23.50
533.03	-29.26
533.39	-9.72
533.75	-13.78
534.11	-44.74
534.47	-11.86
534.83	-19.89
535.19	4.86
535.55	-22.15
535.91	-19.43
536.27	-16.27
536.63	-22.60
536.99	-9.38
537.35	-21.47
537.71	-18.53
538.07	-14.35
538.43	-12.54
538.79	-23.16
539.15	-13.11
539.51	-15.59
539.86	-12.66
540.22	-13.45
540.58	-38.64
540.94	-13.33
541.30	-17.17
541.66	-27.34
542.02	-5.88
542.38	-14.58
542.74	-11.41
543.09	-15.03
543.45	-19.66
543.81	-12.09
544.17	-7.46
544.53	-22.26
544.89	-27.00
545.25	-6.10
545.60	-24.07
545.96	-23.73
546.32	-4.97
546.68	-3.62
547.04	-21.02
547.40	-22.03
547.75	-13.33
548.11	-22.26
548.47	-17.97
548.83	-12.20
549.19	-12.43
549.55	-12.77
549.90	-20.23
550.26	-13.78
550.62	-2.71
550.98	-10.40
551.34	-29.83
551.69	-23.28
552.05	-16.04
552.41	-25.42
552.77	-30.06
553.12	-37.40
553.48	-20.23
553.84	-7.34
554.20	-9.94
554.55	-32.77
554.91	-15.25
555.27	-31.30
555.63	-0.23
555.98	-10.62
556.34	-22.03
556.70	-11.53
557.05	-7.34
557.41	-28.47
557.77	-31.30
558.13	-10.73
558.48	-19.32
558.84	-11.53
559.20	-1.81
559.55	-12.20
559.91	-20.90
560.27	-35.25
560.62	-16.72
560.98	-7.57
561.34	-3.84
561.69	-5.31
562.05	-20.45
562.41	-4.07
562.76	-20.79
563.12	-15.48
563.48	-14.24
563.83	-15.71
564.19	-13.90
564.55	-17.17
564.90	-5.65
565.26	-23.28
565.62	-30.06
565.97	-9.15
566.33	-5.99
566.68	-23.62
567.04	-12.77
567.40	-13.67
567.75	-28.13
568.11	-7.57
568.46	-16.72
568.82	-4.18
569.18	-18.76
569.53	3.39
569.89	-16.72
570.24	2.26
570.60	-12.77
570.95	13.22
571.31	-7.12
571.66	16.04
572.02	28.25
572.38	38.08
572.73	49.26
573.09	23.73
573.44	63.84
573.80	47.46
574.15	31.30
574.51	44.86
574.86	34.58
575.22	48.25
575.57	46.44
575.93	41.35
576.28	45.65
576.64	34.24
576.99	48.93
577.35	40.11
577.70	22.15
578.06	31.41
578.41	33.90
578.77	17.51
579.12	18.42
579.48	32.43
579.83	18.42
580.18	12.77
580.54	16.84
580.89	11.19
581.25	6.55
581.60	9.94
581.96	-23.05
582.31	-20.90
582.67	-5.31
583.02	-11.64
583.37	-4.63
583.73	-27.91
584.08	-6.33
584.44	-4.41
584.79	-19.43
585.14	-6.21
585.50	-14.91
585.85	-21.24
586.21	-19.21
586.56	-15.59
586.91	-30.28
587.27	-15.37
587.62	-7.80
587.97	-10.85
588.33	-7.34
588.68	-10.17
589.03	-5.54
589.39	-13.22
589.74	-13.90
590.09	-5.08
590.45	-8.25
590.80	-13.22
591.15	-14.35
591.51	-32.99
591.86	-4.75
592.21	-19.89
592.57	-5.08
592.92	-11.19
593.27	-9.38
593.63	-16.95
593.98	-12.09
594.33	-26.10
594.69	-18.42
595.04	-7.57
595.39	-1.58
595.74	-7.57
596.10	-10.85
596.45	-14.58
596.80	-23.39
597.15	-17.85
597.51	6.67
597.86	-2.60
598.21	-2.60
598.56	-9.27
598.92	-17.51
599.27	-7.46
599.62	-7.91
599.97	-18.64
600.32	-0.45
600.68	-0.00
601.03	15.14
601.38	-22.82
601.73	0.68
602.09	-22.26
602.44	-16.27
602.79	-31.19
603.14	1.36
603.49	-9.27
603.84	-11.30
604.20	-24.52
604.55	-6.55
604.90	-13.90
605.25	-0.23
605.60	-37.85
605.95	-25.42
606.31	-23.50
606.66	-4.63
607.01	-3.84
607.36	-28.02
607.71	1.47
608.06	-23.84
608.41	-22.60
608.76	-12.54
609.12	-28.93
609.47	-21.58
609.82	-13.11
610.17	-1.47
610.52	-22.49
610.87	1.13
611.22	-13.45
611.57	-11.30
611.92	-3.16
612.27	4.07
612.62	-8.25
612.98	-11.75
613.33	-31.98
613.68	-11.07
614.03	-14.91
614.38	-19.55
614.73	-12.20
615.08	-18.42
615.43	-18.98
615.78	-10.85
616.13	-26.55
616.48	-12.32
616.83	-26.89
617.18	-34.91
617.53	-10.28
617.88	-37.74
618.23	-12.43
618.58	1.13
618.93	-16.27
619.28	-8.36
619.63	-18.08
619.98	-21.47
620.33	-18.42
620.68	-10.73
621.03	-20.23
621.38	-12.54
621.73	-12.54
622.08	-3.28
622.43	-18.87
622.78	8.02
623.13	-18.42
623.48	-11.86
623.82	-30.06
624.17	-22.03
624.52	-32.32
624.87	-5.99
625.22	-24.86
625.57	-18.42
625.92	-25.08
626.27	-39.77
626.62	-14.58
626.97	-21.02
627.32	-17.29
627.66	-16.38
628.01	-2.60
628.36	-22.37
628.71	-24.97
629.06	2.71
629.41	-10.17
629.76	-1.58
630.11	-27.57
630.45	-23.50
630.80	-24.41
631.15	-9.38
631.50	-22.60
631.85	-27.12
632.20	-11.53
632.54	-24.41
632.89	-21.36
633.24	-17.63
633.59	-6.10
633.94	4.07
634.29	-13.45
634.63	4.29
634.98	-2.71
635.33	-15.59
635.68	-10.40
636.02	-18.64
636.37	-28.47
636.72	-2.71
637.07	-24.41
637.42	-20.23
637.76	-29.04
638.11	-17.17
638.46	-15.93
638.81	-13.11
639.15	-16.50
639.50	-19.89
639.85	-5.42
640.20	-5.20
640.54	-3.95
640.89	6.55
641.24	-2.60
641.58	-9.83
641.93	-2.03
642.28	-4.29
642.63	-30.62
642.97	-26.33
643.32	-3.05
643.67	-3.16
644.01	-26.89
644.36	-7.46
644.71	-19.32
645.05	-9.72
645.40	-14.80
645.75	-19.89
646.09	-33.78
646.44	-17.40
646.79	-15.82
647.13	-26.10
647.48	-3.73
647.83	-4.75
648.17	-10.85
648.52	-4.52
648.86	-2.37
649.21	-22.26
649.56	-10.06
649.90	-11.53
650.25	-17.97
650.60	-16.84
650.94	0.90
651.29	-13.11
651.63	2.26
651.98	7.68
652.33	-10.62
652.67	-18.19
653.02	-10.73
653.36	-15.59
653.71	-0.34
654.05	-7.57
654.40	-11.30
654.74	-9.04
655.09	-1.69
655.44	-12.77
655.78	-11.98
656.13	-3.39
656.47	-10.28
656.82	-6.78
657.16	-0.79
657.51	-12.09
657.85	-7.91
658.20	0.45
658.54	4.07
658.89	5.31
659.23	-6.89
659.58	12.43
659.92	-2.37
660.27	-23.05
660.61	-16.27
660.96	-2.49
661.30	-4.52
661.65	-12.09
661.99	-3.16
662.33	10.40
662.68	4.18
663.02	6.10
663.37	25.08
663.71	4.29
664.06	2.94
664.40	-5.31
664.75	-0.79
665.09	-8.14
665.43	16.72
665.78	0.79
666.12	4.29
666.47	-14.46
666.81	-5.76
667.15	14.91
667.50	1.02
667.84	8.14
668.19	13.22
668.53	4.52
668.87	3.62
669.22	22.15
669.56	0.90
669.90	14.80
670.25	0.56
670.59	20.34
670.93	19.66
671.28	13.67
671.62	21.58
671.96	10.73
672.31	40.56
672.65	27.91
672.99	30.17
673.34	33.90
673.68	27.00
674.02	28.25
674.37	27.68
674.71	25.65
675.05	36.61
675.40	18.98
675.74	21.58
676.08	23.50
676.42	57.40
676.77	27.91
677.11	38.53
677.45	43.50
677.79	52.99
678.14	33.22
678.48	71.18
678.82	48.47
679.16	36.38
679.51	68.47
679.85	50.62
680.19	58.19
680.53	52.09
680.88	72.65
681.22	61.69
681.56	65.54
681.90	68.25
682.24	55.14
682.59	55.70
682.93	81.35
683.27	68.81
683.61	87.00
683.95	57.06
684.29	65.99
684.64	84.29
684.98	90.39
685.32	90.05
685.66	89.60
686.00	101.58
686.34	94.91
686.69	94.57
687.03	96.83
687.37	102.60
687.71	108.81
688.05	105.53
688.39	113.22
688.73	134.46
689.07	129.26
689.41	122.37
689.76	129.04
690.10	153.10
690.44	114.80
690.78	131.63
691.12	141.13
691.46	146.89
691.80	155.14
692.14	153.33
692.48	151.86
692.82	151.63
693.16	171.86
693.50	188.92
693.84	168.02
694.18	177.85
694.53	183.27
694.87	195.14
695.21	210.28
695.55	204.18
695.89	211.86
696.23	213.21
696.57	222.71
696.91	228.13
697.25	228.47
697.59	238.75
697.93	253.44
698.27	255.36
698.61	246.77
698.95	252.87
699.29	266.32
699.63	283.16
699.97	276.04
700.30	285.53
700.64	294.68
700.98	329.48
701.32	304.51
701.66	334.79
702.00	345.64
702.34	346.09
702.68	350.61
703.02	384.06
703.36	373.78
703.70	389.71
704.04	408.80
704.38	415.47
704.72	409.59
705.05	416.94
705.39	430.27
705.73	446.88
706.07	445.64
706.41	458.97
706.75	474.11
707.09	502.13
707.43	522.13
707.77	505.30
708.10	536.26
708.44	542.70
708.78	534.56
709.12	573.88
709.46	594.22
709.80	590.38
710.13	603.49
710.47	629.14
710.81	632.75
711.15	645.07
711.49	668.68
711.82	706.99
712.16	733.09
712.50	727.89
712.84	758.06
713.18	752.07
713.51	769.36
713.85	783.14
714.19	804.05
714.53	810.94
714.87	869.13
715.20	871.95
715.54	878.17
715.88	910.94
716.22	922.57
716.55	970.14
716.89	966.98
717.23	1002.46
717.57	1024.83
717.90	1027.54
718.24	1061.44
718.58	1078.95
718.91	1103.02
719.25	1152.17
719.59	1165.73
719.93	1193.75
720.26	1225.17
720.60	1259.97
720.94	1302.45
721.27	1311.60
721.61	1352.62
721.95	1377.03
722.28	1409.23
722.62	1463.58
722.96	1469.57
723.29	1526.40
723.63	1551.82
723.97	1582.90
724.30	1632.27
724.64	1670.58
724.97	1702.78
725.31	1758.48
725.65	1811.59
725.98	1837.35
726.32	1869.78
726.66	1926.62
726.99	1982.32
727.33	2028.65
727.66	2056.10
728.00	2129.77
728.33	2189.43
728.67	2242.31
729.01	2296.21
729.34	2321.63
729.68	2398.36
730.01	2456.21
730.35	2499.03
730.68	2575.30
731.02	2615.64
731.36	2696.65
731.69	2744.45
732.03	2830.10
732.36	2911.79
732.70	2937.21
733.03	3001.95
733.37	3125.45
733.70	3160.71
734.04	3257.99
734.37	3313.25
734.71	3400.93
735.04	3475.50
735.38	3540.02
735.71	3651.99
736.05	3754.82
736.38	3770.52
736.72	3849.73
737.05	3929.28
737.38	4008.03
737.72	4089.50
738.05	4197.74
738.39	4254.46
738.72	4342.26
739.06	4410.05
739.39	4541.01
739.73	4589.48
740.06	4708.69
740.39	4805.07
740.73	4935.01
741.06	5011.73
741.40	5061.79
741.73	5196.25
742.06	5257.83
742.40	5376.69
742.73	5463.47
743.07	5571.83
743.40	5666.74
743.73	5765.05
744.07	5873.29
744.40	5974.65
744.73	6129.22
745.07	6206.16
745.40	6294.86
745.73	6383.33
746.07	6526.04
746.40	6635.64
746.73	6754.06
747.07	6820.27
747.40	6930.21
747.73	7098.01
748.07	7144.11
748.40	7300.71
748.73	7425.34
749.07	7534.94
749.40	7662.28
749.73	7794.03
750.06	7870.98
750.40	7997.08
750.73	8137.75
751.06	8260.80
751.40	8335.37
751.73	8429.50
752.06	8634.58
752.39	8761.35
752.73	8908.81
753.06	9024.06
753.39	9115.13
753.72	9191.28
754.05	9309.47
754.39	9458.73
754.72	9580.31
755.05	9774.88
755.38	9860.76
755.72	9900.98
756.05	10083.01
756.38	10201.20
756.71	10313.51
757.04	10451.14
757.37	10440.74
757.71	10642.32
758.04	10724.80
758.37	10832.60
758.70	10858.13
759.03	11090.67
759.36	11184.68
759.70	11401.73
760.03	11424.45
760.36	11577.32
760.69	11718.11
761.02	11769.18
761.35	11905.45
761.68	12033.69
762.01	12085.78
762.35	12187.82
762.68	12259.79
763.01	12449.39
763.34	12512.89
763.67	12507.35
764.00	12605.54
764.33	12640.35
764.66	12698.54
764.99	12789.83
765.32	12812.88
765.65	13017.17
765.98	13148.58
766.31	12997.62
766.65	13095.70
766.98	13040.56
767.31	13114.23
767.64	13219.65
767.97	13160.56
768.30	13065.98
768.63	13191.52
768.96	13122.71
769.29	13164.96
769.62	13128.69
769.95	13168.92
770.28	13117.51
770.61	13054.68
770.94	13121.91
771.27	13140.67
771.60	13040.79
771.93	13065.65
772.26	13002.71
772.59	12920.56
772.92	12914.80
773.24	12992.43
773.57	12891.07
773.90	12791.53
774.23	12723.06
774.56	12710.17
774.89	12685.09
775.22	12509.16
775.55	12579.10
775.88	12367.81
776.21	12287.81
776.54	12198.89
776.87	12060.93
777.19	12038.55
777.52	11995.84
777.85	11766.70
778.18	11669.41
778.51	11549.19
778.84	11503.43
779.17	11443.09
779.50	11354.28
779.82	11183.21
780.15	11032.03
780.48	10939.03
780.81	10793.73
781.14	10739.27
781.47	10653.96
781.80	10414.64
782.12	10429.44
782.45	10217.25
782.78	10247.53
783.11	10036.46
783.44	9877.03
783.76	9872.40
784.09	9690.03
784.42	9577.94
784.75	9466.53
785.08	9328.00
785.40	9248.46
785.73	9127.33
786.06	8904.96
786.39	8815.81
786.71	8748.70
787.04	8682.48
787.37	8513.67
787.70	8357.29
788.02	8234.36
788.35	8039.79
788.68	7929.40
789.00	7819.46
789.33	7623.19
789.66	7557.77
789.99	7375.17
790.31	7222.75
790.64	7195.07
790.97	7007.73
791.29	6949.42
791.62	6816.66
791.95	6644.46
792.27	6541.97
792.60	6473.62
792.93	6314.86
793.25	6189.89
793.58	6142.44
793.91	6003.80
794.23	5879.05
794.56	5769.68
794.89	5673.75
795.21	5618.84
795.54	5478.73
795.87	5355.34
796.19	5290.26
796.52	5190.48
796.84	5080.32
797.17	4969.59
797.50	4906.09
797.82	4754.23
798.15	4679.20
798.47	4596.15
798.80	4480.67
799.12	4435.48
799.45	4307.68
799.78	4180.68
800.10	4092.43
800.43	4026.00
800.75	3916.96
801.08	3834.70
801.40	3712.56
801.73	3656.29
802.05	3552.45
802.38	3482.51
802.70	3405.56
803.03	3316.64
803.35	3222.29
803.68	3173.48
804.00	3092.80
804.33	3020.37
804.65	2925.35
804.98	2832.13
805.30	2746.14
805.63	2664.56
805.95	2608.63
806.28	2545.47
806.60	2418.24
806.93	2358.13
807.25	2319.49
807.58	2292.82
807.90	2189.43
808.22	2115.31
808.55	2077.57
808.87	2014.75
809.20	1959.27
809.52	1914.86
809.85	1825.60
810.17	1805.04
810.49	1711.93
810.82	1674.19
811.14	1638.83
811.47	1584.70
811.79	1532.84
812.11	1504.48
812.44	1453.07
812.76	1386.63
813.08	1324.82
813.41	1280.98
813.73	1259.63
814.05	1230.36
814.38	1198.73
814.70	1131.72
815.02	1094.21
815.35	1060.31
815.67	1033.31
815.99	1021.78
816.32	987.88
816.64	913.65
816.96	927.77
817.29	882.35
817.61	847.44
817.93	842.58
818.26	833.65
818.58	771.62
818.90	757.83
819.22	740.09
819.55	716.14
819.87	696.59
820.19	675.69
820.51	641.11
820.84	618.40
821.16	600.44
821.48	567.78
821.80	563.49
822.13	553.66
822.45	548.80
822.77	528.46
823.09	522.92
823.41	488.35
823.74	467.67
824.06	454.56
824.38	450.27
824.70	426.20
825.02	423.72
825.35	429.25
825.67	389.26
825.99	393.89
826.31	389.48
826.63	370.95
826.95	348.13
827.27	345.75
827.60	342.48
827.92	315.70
828.24	322.70
828.56	312.99
828.88	292.65
829.20	294.46
829.52	269.60
829.84	295.47
830.17	278.41
830.49	255.59
830.81	253.33
831.13	255.13
831.45	232.76
831.77	254.34
832.09	220.56
832.41	218.07
832.73	218.30
833.05	212.08
833.37	206.44
833.69	189.60
834.01	194.23
834.33	185.76
834.65	169.83
834.97	169.83
835.29	160.22
835.61	161.69
835.94	173.78
836.26	171.29
836.58	155.02
836.90	133.33
837.21	147.34
837.53	155.02
837.85	137.06
838.17	152.31
838.49	115.03
838.81	123.61
839.13	119.66
839.45	116.61
839.77	107.34
840.09	102.03
840.41	98.53
840.73	93.56
841.05	79.88
841.37	101.13
841.69	90.96
842.01	85.08
842.33	72.88
842.65	76.83
842.96	71.75
843.28	87.00
843.60	80.34
843.92	65.08
844.24	80.90
844.56	60.45
844.88	60.90
845.20	41.58
845.52	70.05
845.83	53.11
846.15	43.50
846.47	47.80
846.79	39.55
847.11	41.58
847.43	36.72
847.74	49.72
848.06	48.70
848.38	48.59
848.70	44.29
849.02	41.47
849.33	14.91
849.65	53.78
849.97	41.58
850.29	29.94
850.61	52.32
850.92	25.20
851.24	8.02
851.56	6.89
851.88	17.29
852.19	18.87
852.51	-3.73
852.83	19.55
853.15	-3.73
853.46	15.37
853.78	21.69
854.10	7.57
854.42	17.51
854.73	15.59
855.05	2.71
855.37	-2.94
855.68	14.01
856.00	10.40
856.32	-15.37
856.63	-8.47
856.95	14.58
857.27	1.24
857.59	2.37
857.90	-14.69
858.22	0.68
858.53	10.96
858.85	11.07
859.17	10.28
859.48	-3.28
859.80	-2.82
860.12	-5.76
860.43	2.82
860.75	8.47
861.07	-9.15
861.38	-6.33
861.70	-2.03
862.01	-23.62
862.33	-21.02
862.65	-9.15
862.96	6.67
863.28	-21.24
863.59	8.02
863.91	4.52
864.22	-7.34
864.54	-0.68
864.86	-14.91
865.17	-11.75
865.49	7.46
865.80	-18.87
866.12	-22.94
866.43	-22.03
866.75	-4.63
867.06	-0.11
867.38	-15.25
867.69	-13.67
868.01	-17.63
868.32	-12.09
868.64	-11.53
868.95	-16.04
869.27	-4.29
869.58	-10.51
869.90	-9.72
870.21	-12.99
870.53	-5.76
870.84	5.54
871.15	-3.84
871.47	-13.33
871.78	-9.72
872.10	-5.65
872.41	-5.08
872.73	-13.45
873.04	-5.42
873.36	-11.86
873.67	-2.03
873.98	-14.69
874.30	-4.75
874.61	-19.21
874.93	-8.81
875.24	-2.37
875.55	-12.66
875.87	-2.60
876.18	-12.66
876.49	-16.27
876.81	-13.22
877.12	-21.47
877.43	-17.29
877.75	-16.27
878.06	-10.40
878.37	-13.90
878.69	4.52
879.00	-19.10
879.31	-26.44
879.63	-12.20
879.94	-8.14
880.25	-6.44
880.57	-2.49
880.88	120.00
881.19	0.79
881.50	-9.94
881.82	-13.33
882.13	-12.09
882.44	-15.93
882.76	-23.73
883.07	-13.78
883.38	-22.49
883.69	-18.87
884.01	-34.46
884.32	-16.16
884.63	-37.17
884.94	-18.30
885.25	-33.56
885.57	-5.08
885.88	-5.20
886.19	-18.19
886.50	-3.28
886.81	-11.30
887.13	-17.85
887.44	-11.75
887.75	-14.80
888.06	-18.76
888.37	-6.44
888.69	-22.37
889.00	-30.06
889.31	-7.46
889.62	-22.60
889.93	-12.20
890.24	-14.91
890.55	-27.68
890.87	-16.38
891.18	-1.92
891.49	-13.45
891.80	-16.72
892.11	-20.34
892.42	-7.57
892.73	-4.97
893.04	-16.27
893.35	-3.73
893.66	4.07
893.98	-28.02
894.29	-30.85
894.60	-17.74
894.91	-14.91
895.22	-24.41
895.53	-12.54
895.84	-15.82
896.15	-9.27
896.46	-3.62
896.77	-27.34
897.08	-27.00
897.39	-10.51
897.70	6.21
898.01	-15.82
898.32	-33.67
898.63	-20.11
898.94	8.02
899.25	-26.21
899.56	-12.77
899.87	4.29
900.18	-10.06
900.49	-12.43
900.80	-26.78
901.11	-22.82
901.42	-30.39
901.73	-5.31
902.04	3.73
902.35	-17.97
902.66	-26.10
902.96	-20.34
903.27	-24.86
903.58	-13.67
903.89	-15.37
904.20	-6.89
904.51	-17.97
904.82	-29.38
905.13	-35.37
905.44	-33.11
905.75	-44.97
906.05	-19.89
906.36	-13.78
906.67	-22.15
906.98	-16.16
907.29	-17.17
907.60	-8.02
907.91	-10.06
908.21	10.51
908.52	-25.99
908.83	-4.97
909.14	-16.50
909.45	-14.46
909.75	-35.48
910.06	-8.47
910.37	-10.85
910.68	-11.98
910.99	-12.09
911.29	-28.70
911.60	-28.81
911.91	-27.57
912.22	-7.34
912.52	-20.11
912.83	-16.27
913.14	-11.41
913.45	-36.16
913.75	-5.65
914.06	-19.21
914.37	-29.83
914.68	1.92
914.98	-30.39
915.29	-40.90
915.60	-29.94
915.91	-22.71
916.21	-19.77
916.52	-25.88
916.83	-14.69
917.13	-20.23
917.44	1.58
917.75	-8.25
918.05	-19.10
918.36	-22.82
918.67	-25.08
918.97	-13.78
919.28	-4.18
919.59	-32.54
919.89	-25.54
920.20	-31.75
920.50	-23.95
920.81	-30.85
921.12	-17.29
921.42	-24.97
921.73	-28.02
922.03	-29.38
922.34	-26.21
922.65	-10.51
922.95	-8.93
923.26	-13.78
923.56	-35.03
923.87	-20.00
924.18	-15.82
924.48	-16.95
924.79	-16.04
925.09	-15.48
925.40	-6.10
925.70	-25.54
926.01	-6.10
926.31	-6.78
926.62	-31.86
926.92	-18.87
927.23	-27.46
927.53	-15.37
927.84	-9.49
928.14	-16.61
928.45	-12.32
928.75	-18.53
929.06	-16.84
929.36	-12.43
929.67	-11.19
929.97	-15.03
930.28	-1.24
930.58	-3.84
930.89	-28.59
931.19	-29.49
931.49	-10.40
931.80	-39.77
932.10	-3.50
932.41	-13.90
932.71	-27.34
933.01	-16.27
933.32	-18.42
933.62	-6.89
933.93	-21.47
934.23	-16.72
934.53	2.26
934.84	-3.84
935.14	-26.67
935.45	-15.48
935.75	-32.20
936.05	-22.15
936.36	-3.50
936.66	-8.36
936.96	-25.65
937.27	-32.43
937.57	-14.01
937.87	-14.01
938.18	-19.55
938.48	-26.10
938.78	-18.98
939.08	-45.87
939.39	-16.61
939.69	2.37
939.99	-20.79
940.30	-12.99
940.60	-11.86
940.90	-6.67
941.20	-25.20
941.51	-19.77
941.81	-10.85
942.11	-27.80
942.41	-22.15
942.72	-2.03
943.02	-17.63
943.32	-10.06
943.62	-20.90
943.93	-17.17
944.23	-11.41
944.53	-7.46
944.83	-15.59
945.13	-6.55
945.44	-33.90
945.74	-16.84
946.04	-30.62
946.34	2.49
946.64	-18.42
946.94	-10.17
947.25	-15.48
947.55	-23.84
947.85	-28.02
948.15	-17.06
948.45	-17.40
948.75	-35.37
949.05	-26.33
949.35	-16.72
949.66	-9.60
949.96	5.99
950.26	-35.37
950.56	-17.85
950.86	-14.24
951.16	-32.09
951.46	-19.21
951.76	-12.99
952.06	-23.62
952.36	-4.97
952.66	-11.53
952.96	-11.30
953.26	-20.90
953.57	-23.95
953.87	-36.72
954.17	-13.33
954.47	-10.96
954.77	-25.20
955.07	-12.32
955.37	-12.99
955.67	-17.29
955.97	-7.57
956.27	-12.88
956.57	-19.66
956.87	-26.21
957.17	-35.14
957.47	-16.38
957.77	-3.05
958.06	-30.17
958.36	-14.91
958.66	0.00
958.96	-15.59
959.26	-23.62
959.56	-33.33
959.86	-22.94
960.16	-14.91
960.46	-23.50
960.76	-9.27
961.06	-17.74
961.36	-28.36
961.66	-13.11
961.95	-14.24
962.25	-2.94
962.55	-13.11
962.85	-6.44
963.15	-11.75
963.45	-4.97
963.75	-19.32
964.05	-20.56
964.34	2.49
964.64	-13.90
964.94	-37.63
965.24	-30.28
965.54	-33.11
965.83	-0.79
966.13	-18.08
966.43	-13.33
966.73	9.60
967.03	-4.75
967.32	-22.26
967.62	9.83
967.92	-30.17
968.22	-20.68
968.52	-15.82
968.81	-35.71
969.11	-15.25
969.41	-21.58
969.71	-14.01
970.00	-13.11
970.30	3.39
970.60	-8.25
970.90	-20.23
971.19	-8.36
971.49	-11.75
971.79	-26.33
972.08	-1.36
972.38	-25.99
972.68	-25.54
972.97	-12.20
973.27	-1.13
973.57	-33.45
973.87	-5.42
974.16	-27.34
974.46	-18.42
974.75	-14.24
975.05	-18.30
975.35	-11.75
975.64	-31.07
975.94	-23.16
976.24	0.90
976.53	-36.95
976.83	-16.27
977.13	-20.68
977.42	-13.11
977.72	2.03
978.01	-29.26
978.31	-14.46
978.60	-18.42
978.90	-35.93
979.20	-16.27
979.49	-32.99
979.79	-32.54
980.08	0.34
980.38	-9.27
980.67	-10.73
980.97	-26.33
981.26	-29.15
981.56	-16.72
981.86	1.81
982.15	-14.01
982.45	-11.75
982.74	-19.55
983.04	-19.43
983.33	-20.00
983.63	-24.63
983.92	-24.75
984.21	-16.95
984.51	-28.47
984.80	-9.27
985.10	-16.84
985.39	-29.60
985.69	-23.50
985.98	-25.31
986.28	-10.96
986.57	-12.32
986.87	1.36
987.16	-13.90
987.45	-17.29
987.75	-27.68
988.04	-12.32
988.34	-19.55
988.63	-12.09
988.92	-29.04
989.22	-11.98
989.51	-25.20
989.80	-22.37
990.10	-14.24
990.39	-30.51
990.69	-7.80
990.98	-14.12
991.27	-16.27
991.57	-14.58
991.86	-13.45
992.15	-5.99
992.45	-29.60
992.74	-11.98
993.03	-17.40
993.33	-7.01
993.62	-12.43
993.91	-17.85
994.20	-17.17
994.50	-27.46
994.79	-10.85
995.08	-22.94
995.37	-7.80
995.67	-13.33
995.96	-23.05
996.25	-26.21
996.54	-6.78
996.84	-24.97
997.13	-45.87
997.42	-20.90
997.71	-24.18
998.01	-22.94
998.30	-13.22
998.59	-3.95
998.88	-8.14
999.17	-8.14
999.47	-15.59
999.76	-12.20
1000.05	-24.63
1000.34	-8.02
1000.63	-21.81
1000.92	-1.81
1001.22	-8.25
1001.51	-8.59
1001.80	-12.99
1002.09	-20.23
1002.38	-5.08
1002.67	-28.81
1002.96	-19.32
1003.26	-21.92
1003.55	-25.08
1003.84	-24.18
1004.13	-7.34
1004.42	-25.42
1004.71	-44.41
1005.00	-18.08
1005.29	-12.54
1005.58	-10.17
1005.87	-35.14
1006.16	-33.45
1006.45	-7.23
1006.74	-9.94
1007.04	-18.30
1007.33	-2.15
1007.62	-38.87
1007.91	-14.58
1008.20	-12.77
1008.49	-36.95
1008.78	-22.60
1009.07	-29.49
1009.36	-18.98
1009.65	-38.87
1009.94	-19.66
1010.23	-31.98
1010.52	-20.90
1010.81	-18.30
1011.10	-25.99
1011.38	-23.95
1011.67	-24.29
1011.96	-5.99
1012.25	-28.93
1012.54	-25.54
1012.83	-24.18
1013.12	-27.91
1013.41	-32.88
1013.70	-19.32
1013.99	-21.02
1014.28	-2.71
1014.57	-24.75
1014.86	-5.99
1015.14	-20.11
1015.43	-30.06
1015.72	-25.31
1016.01	-26.33
1016.30	-6.78
1016.59	-16.27
1016.88	-30.96
1017.16	-29.72
1017.45	-13.22
1017.74	-23.16
1018.03	-21.24
1018.32	-17.29
1018.61	-28.36
1018.89	-14.35
1019.18	-22.03
1019.47	-33.22
1019.76	-25.76
1020.05	-32.20
1020.33	-23.05
1020.62	-29.15
1020.91	-12.66
1021.20	-13.90
1021.48	-16.72
1021.77	-13.45
1022.06	-15.93
1022.35	-11.07
1022.63	-17.97
1022.92	-36.84
1023.21	-6.55
1023.50	-12.32
1023.78	-22.49
1024.07	-5.65
1024.36	-8.47
1024.64	-7.91
1024.93	-20.45
1025.22	-29.49
1025.50	-15.48
1025.79	0.79
1026.08	-18.53
1026.36	2.60
1026.65	-14.12
1026.94	-16.38
1027.22	-35.82
1027.51	-1.02
1027.80	-5.76
1028.08	-9.94
1028.37	-36.16
1028.66	-20.23
1028.94	-18.08
>>>>>End Processed Spectral Data<<<<<
