SpectraSuite Data File
++++++++++++++++++++++++++++++++++++
Date: Thu Jun 15 11:38:50 BST 2017
User: Eng0000912
Dark Spectrum Present: Yes
Reference Spectrum Present: No
Number of Sampled Component Spectra: 1
Spectrometers: USB2+H04851
Integration Time (usec): 100000 (USB2+H04851)
Spectra Averaged: 20 (USB2+H04851)
Boxcar Smoothing: 0 (USB2+H04851)
Correct for Electrical Dark: No (USB2+H04851)
Strobe/Lamp Enabled: No (USB2+H04851)
Correct for Detector Non-linearity: No (USB2+H04851)
Correct for Stray Light: No (USB2+H04851)
Number of Pixels in Processed Spectrum: 2048
>>>>>Begin Processed Spectral Data<<<<<
340.07	-17.06
340.45	-17.06
340.82	-17.06
341.20	-29.94
341.58	-27.68
341.96	-27.91
342.34	-27.57
342.72	-8.25
343.10	-37.85
343.48	-31.07
343.85	-27.34
344.23	-19.89
344.61	9.38
344.99	-1.69
345.37	-12.88
345.75	-27.23
346.13	-58.19
346.50	-19.32
346.88	-13.33
347.26	-27.12
347.64	-39.77
348.02	-23.28
348.40	-27.00
348.77	-22.94
349.15	-28.13
349.53	-24.41
349.91	-31.19
350.29	-6.55
350.66	-18.19
351.04	-18.19
351.42	-10.28
351.80	-23.05
352.18	-19.66
352.55	-14.69
352.93	-23.16
353.31	-34.12
353.69	-8.02
354.07	-14.58
354.44	-9.49
354.82	-26.44
355.20	-12.88
355.58	-28.25
355.95	-24.97
356.33	-31.52
356.71	-22.49
357.09	-25.54
357.46	-20.23
357.84	-22.15
358.22	-9.04
358.60	-28.59
358.97	-20.23
359.35	-17.17
359.73	-15.48
360.10	-20.56
360.48	-14.46
360.86	-17.17
361.24	-25.65
361.61	-6.67
361.99	-32.65
362.37	-35.03
362.74	-25.99
363.12	-25.54
363.50	-45.54
363.87	-16.72
364.25	-24.75
364.63	-48.13
365.01	-19.89
365.38	-36.50
365.76	-19.55
366.14	-15.25
366.51	-24.63
366.89	-39.10
367.27	-17.74
367.64	-8.70
368.02	-20.11
368.39	-18.76
368.77	-25.31
369.15	-31.52
369.52	-16.95
369.90	-22.03
370.28	-13.11
370.65	-23.95
371.03	-26.89
371.40	-28.47
371.78	-14.91
372.16	-28.93
372.53	-11.86
372.91	-11.53
373.28	-17.17
373.66	-29.26
374.04	-24.86
374.41	-14.69
374.79	-31.19
375.16	-23.95
375.54	-38.42
375.92	-7.34
376.29	-31.86
376.67	-13.45
377.04	-20.11
377.42	-3.39
377.79	-21.69
378.17	-24.07
378.55	-11.41
378.92	-9.60
379.30	-35.59
379.67	-34.80
380.05	4.41
380.42	-5.42
380.80	-18.98
381.17	-32.32
381.55	-13.56
381.92	-20.79
382.30	-35.14
382.67	-27.00
383.05	-10.62
383.42	-28.70
383.80	-25.65
384.17	-3.95
384.55	-45.20
384.92	-38.30
385.30	-37.97
385.67	-25.31
386.05	-9.04
386.42	-18.19
386.80	-19.10
387.17	-37.40
387.55	-32.99
387.92	-11.86
388.30	-19.77
388.67	-17.06
389.04	-28.13
389.42	-16.95
389.79	-24.52
390.17	-16.95
390.54	-29.94
390.92	-29.04
391.29	-18.53
391.67	-7.12
392.04	-7.23
392.41	-9.72
392.79	-31.30
393.16	-22.37
393.54	-30.28
393.91	-36.61
394.28	-23.62
394.66	-35.14
395.03	-31.41
395.41	-31.19
395.78	-13.11
396.15	-30.28
396.53	-19.10
396.90	-31.64
397.28	-29.60
397.65	-19.43
398.02	-14.35
398.40	-16.95
398.77	-20.90
399.14	-19.21
399.52	-34.58
399.89	-22.03
400.26	-34.80
400.64	-12.32
401.01	-7.34
401.38	6.55
401.76	-19.43
402.13	9.04
402.50	-3.05
402.88	-24.41
403.25	-29.26
403.62	-31.07
404.00	-1.24
404.37	-30.17
404.74	-6.10
405.12	-30.28
405.49	-17.06
405.86	-19.89
406.23	-34.24
406.61	-19.66
406.98	-29.49
407.35	-37.74
407.73	-22.49
408.10	1.58
408.47	-17.06
408.84	-5.08
409.22	-23.05
409.59	-7.01
409.96	-30.28
410.33	-26.89
410.71	-7.46
411.08	-8.25
411.45	2.49
411.82	-21.58
412.20	-24.86
412.57	2.71
412.94	-25.88
413.31	-49.38
413.68	-21.13
414.06	-31.86
414.43	-33.11
414.80	-16.38
415.17	-8.14
415.55	-7.68
415.92	-14.46
416.29	-16.27
416.66	-31.52
417.03	-18.76
417.40	-21.24
417.78	-18.19
418.15	-25.20
418.52	-16.04
418.89	-13.67
419.26	-8.14
419.63	-9.04
420.01	-25.54
420.38	-19.43
420.75	-17.63
421.12	-19.21
421.49	-17.40
421.86	-10.17
422.23	-12.43
422.61	-22.49
422.98	-29.60
423.35	-29.49
423.72	-17.63
424.09	-34.35
424.46	-2.26
424.83	-47.46
425.20	-25.08
425.58	-14.69
425.95	-23.62
426.32	-30.73
426.69	-28.02
427.06	-4.18
427.43	-14.91
427.80	-18.87
428.17	-22.15
428.54	-3.28
428.91	-28.25
429.28	-17.51
429.65	-33.67
430.02	-14.01
430.40	-16.16
430.77	-17.06
431.14	-32.09
431.51	-1.36
431.88	-12.54
432.25	-13.45
432.62	-31.86
432.99	-25.20
433.36	-23.62
433.73	-20.34
434.10	-18.76
434.47	-21.92
434.84	-22.49
435.21	-8.47
435.58	-14.12
435.95	-24.18
436.32	-29.94
436.69	-29.83
437.06	-31.64
437.43	-16.72
437.80	-22.94
438.17	-27.57
438.54	-14.69
438.91	-4.52
439.28	-21.92
439.65	-38.98
440.02	-19.66
440.39	-29.60
440.76	-17.85
441.13	-15.82
441.49	-17.29
441.86	-19.77
442.23	-9.27
442.60	-22.15
442.97	-23.95
443.34	-12.20
443.71	-31.86
444.08	-49.15
444.45	-21.92
444.82	-25.88
445.19	-14.24
445.56	-34.01
445.93	-8.81
446.29	-20.68
446.66	-47.00
447.03	-16.27
447.40	-18.87
447.77	-19.77
448.14	-29.26
448.51	-26.55
448.88	4.07
449.24	-11.86
449.61	-40.45
449.98	-22.49
450.35	-11.64
450.72	-41.02
451.09	-14.80
451.46	-6.21
451.82	-16.61
452.19	-21.13
452.56	-35.82
452.93	-20.00
453.30	-23.84
453.67	-12.88
454.03	-32.43
454.40	-32.43
454.77	-11.30
455.14	-38.42
455.51	-25.76
455.87	-29.15
456.24	-13.22
456.61	-5.99
456.98	-11.98
457.35	-31.30
457.71	-13.33
458.08	-38.98
458.45	-5.42
458.82	-27.46
459.19	-21.24
459.55	-18.87
459.92	-15.37
460.29	-20.56
460.66	-21.24
461.02	-17.51
461.39	-24.07
461.76	-22.26
462.13	-29.49
462.49	-10.85
462.86	-27.68
463.23	-35.37
463.59	-9.15
463.96	-29.15
464.33	-11.07
464.70	-17.85
465.06	-20.00
465.43	-18.08
465.80	-14.46
466.16	-31.98
466.53	-38.76
466.90	-23.73
467.26	-26.67
467.63	-24.52
468.00	-20.34
468.36	-27.68
468.73	-35.03
469.10	-27.80
469.46	-6.44
469.83	-22.94
470.20	-28.70
470.56	-20.45
470.93	-28.93
471.30	-28.02
471.66	-26.10
472.03	-9.15
472.40	-26.33
472.76	-16.04
473.13	-25.76
473.50	-16.27
473.86	-13.56
474.23	-19.32
474.59	-26.78
474.96	-37.63
475.33	-20.90
475.69	-18.19
476.06	-41.81
476.42	-12.66
476.79	-23.39
477.16	-14.35
477.52	-11.64
477.89	-29.60
478.25	-15.48
478.62	-30.85
478.98	-21.58
479.35	-11.07
479.72	-23.05
480.08	-26.55
480.45	-18.98
480.81	-17.85
481.18	-36.50
481.54	-34.12
481.91	-17.74
482.27	-16.72
482.64	-23.95
483.00	-12.66
483.37	-38.08
483.73	-29.83
484.10	-9.04
484.46	-22.15
484.83	-5.76
485.19	-23.95
485.56	-27.23
485.92	-17.51
486.29	-26.89
486.65	-28.81
487.02	-20.45
487.38	-24.52
487.75	-23.84
488.11	-24.18
488.48	-24.97
488.84	-23.73
489.21	-29.60
489.57	-35.59
489.94	-37.74
490.30	-6.44
490.66	-20.79
491.03	-24.07
491.39	-0.79
491.76	-13.11
492.12	-21.69
492.49	-16.61
492.85	-36.38
493.21	-32.54
493.58	-9.27
493.94	-1.02
494.31	-8.70
494.67	-24.41
495.03	-15.59
495.40	-22.71
495.76	-28.25
496.13	-10.40
496.49	-26.44
496.85	-19.55
497.22	-8.81
497.58	-24.18
497.94	-11.30
498.31	-7.80
498.67	-20.90
499.04	-12.66
499.40	-16.16
499.76	-16.84
500.13	-24.18
500.49	-24.07
500.85	-33.67
501.22	-15.59
501.58	-19.10
501.94	-20.11
502.31	-10.85
502.67	-15.71
503.03	-24.29
503.40	-22.26
503.76	-31.98
504.12	-0.23
504.48	-18.42
504.85	-9.15
505.21	-34.69
505.57	-37.17
505.94	-20.79
506.30	-16.27
506.66	-19.21
507.02	-18.08
507.39	-17.40
507.75	-25.20
508.11	-22.37
508.47	-21.81
508.84	-22.49
509.20	-9.27
509.56	-34.35
509.92	-29.83
510.29	-14.46
510.65	-26.67
511.01	-32.54
511.37	-27.00
511.74	-18.53
512.10	-17.51
512.46	-5.31
512.82	-12.77
513.18	-6.10
513.55	-25.54
513.91	-20.45
514.27	-22.26
514.63	-21.02
514.99	-6.21
515.35	16.95
515.72	-6.44
516.08	-38.19
516.44	-38.19
516.80	-16.16
517.16	-30.96
517.52	-19.89
517.89	-28.81
518.25	-39.43
518.61	-33.33
518.97	-26.89
519.33	-18.87
519.69	1.47
520.05	-14.12
520.42	-33.90
520.78	-26.21
521.14	-33.78
521.50	-23.84
521.86	-34.69
522.22	-14.91
522.58	-11.98
522.94	-18.53
523.30	-29.04
523.67	-6.33
524.03	-30.51
524.39	-27.68
524.75	-33.90
525.11	-18.76
525.47	-16.72
525.83	-27.57
526.19	-20.79
526.55	2.94
526.91	-25.65
527.27	-11.86
527.63	-23.39
527.99	-9.15
528.35	-13.56
528.71	-10.06
529.07	-15.93
529.43	-5.65
529.79	-27.23
530.15	-17.85
530.51	-17.40
530.87	-15.03
531.23	-13.90
531.59	-12.99
531.95	-17.06
532.31	-34.46
532.67	-26.21
533.03	-28.02
533.39	-19.89
533.75	-5.99
534.11	-25.20
534.47	-17.40
534.83	-3.16
535.19	-10.96
535.55	-5.08
535.91	-18.42
536.27	-19.66
536.63	-38.53
536.99	-22.15
537.35	-35.03
537.71	-22.60
538.07	-28.25
538.43	-21.58
538.79	-34.24
539.15	-20.79
539.51	-28.93
539.86	-27.57
540.22	-41.69
540.58	-36.50
540.94	-26.55
541.30	-10.62
541.66	-12.88
542.02	-22.03
542.38	-18.98
542.74	-15.59
543.09	-15.59
543.45	-28.02
543.81	-9.04
544.17	-14.91
544.53	-16.61
544.89	-20.68
545.25	-12.99
545.60	-26.67
545.96	-48.81
546.32	-12.54
546.68	-15.82
547.04	-23.28
547.40	-19.55
547.75	-7.34
548.11	-23.50
548.47	-33.78
548.83	-18.30
549.19	-21.36
549.55	-11.07
549.90	-24.29
550.26	-13.56
550.62	-16.04
550.98	-25.54
551.34	-23.73
551.69	-20.68
552.05	-18.42
552.41	-21.69
552.77	-27.80
553.12	-25.08
553.48	-14.58
553.84	-18.53
554.20	-17.97
554.55	-26.10
554.91	-15.59
555.27	-32.77
555.63	-8.36
555.98	-4.07
556.34	-30.96
556.70	-13.78
557.05	-28.81
557.41	-15.82
557.77	-43.05
558.13	-34.35
558.48	-17.40
558.84	-24.97
559.20	-14.58
559.55	-33.45
559.91	-33.11
560.27	-17.97
560.62	-21.13
560.98	-25.20
561.34	-7.57
561.69	-4.18
562.05	-21.92
562.41	-14.12
562.76	-32.32
563.12	-26.55
563.48	-17.85
563.83	-11.19
564.19	-20.68
564.55	-31.98
564.90	-8.59
565.26	-31.75
565.62	-23.50
565.97	-28.25
566.33	-5.08
566.68	-25.88
567.04	-25.08
567.40	-5.20
567.75	-20.68
568.11	-8.70
568.46	-23.62
568.82	-6.44
569.18	-14.46
569.53	2.71
569.89	-15.71
570.24	-8.93
570.60	-21.58
570.95	-6.67
571.31	-13.56
571.66	9.15
572.02	26.78
572.38	30.96
572.73	47.00
573.09	22.26
573.44	65.76
573.80	30.28
574.15	26.44
574.51	26.44
574.86	38.30
575.22	44.07
575.57	23.73
575.93	42.82
576.28	24.41
576.64	31.86
576.99	21.47
577.35	31.07
577.70	26.21
578.06	34.01
578.41	32.54
578.77	13.67
579.12	3.05
579.48	26.55
579.83	4.29
580.18	-0.68
580.54	6.44
580.89	24.07
581.25	0.11
581.60	17.85
581.96	-33.90
582.31	-20.68
582.67	-9.04
583.02	-5.65
583.37	-14.58
583.73	-18.76
584.08	-6.10
584.44	-7.68
584.79	-5.65
585.14	-4.07
585.50	-13.11
585.85	-27.00
586.21	-10.73
586.56	-3.50
586.91	-29.26
587.27	-22.26
587.62	-24.63
587.97	-22.71
588.33	-22.94
588.68	-15.03
589.03	-7.68
589.39	-30.17
589.74	-15.25
590.09	-19.32
590.45	-16.38
590.80	-16.61
591.15	-10.06
591.51	-29.38
591.86	-7.23
592.21	-34.35
592.57	-35.14
592.92	-22.82
593.27	-7.80
593.63	-36.61
593.98	-36.84
594.33	-20.79
594.69	-12.09
595.04	-18.42
595.39	-6.44
595.74	-11.41
596.10	-18.98
596.45	-20.56
596.80	-36.27
597.15	-21.81
597.51	-0.56
597.86	-7.34
598.21	-12.88
598.56	-7.68
598.92	-31.41
599.27	-30.51
599.62	-11.07
599.97	-8.47
600.32	-4.18
600.68	-19.89
601.03	-0.34
601.38	-30.51
601.73	-2.82
602.09	-16.16
602.44	-14.12
602.79	-32.77
603.14	-15.25
603.49	-15.82
603.84	-14.58
604.20	-17.85
604.55	-9.49
604.90	-16.38
605.25	-19.10
605.60	-25.65
605.95	-30.39
606.31	-26.89
606.66	-28.81
607.01	-15.03
607.36	-30.39
607.71	-25.54
608.06	-20.23
608.41	-18.08
608.76	-26.21
609.12	-24.18
609.47	-15.03
609.82	-17.51
610.17	-5.54
610.52	-2.60
610.87	-2.94
611.22	-18.30
611.57	-20.68
611.92	-16.84
612.27	-0.79
612.62	-16.95
612.98	-18.53
613.33	-36.27
613.68	-8.93
614.03	-20.56
614.38	-18.42
614.73	-15.37
615.08	-9.60
615.43	-18.19
615.78	-21.58
616.13	-20.34
616.48	-20.56
616.83	-7.34
617.18	-38.76
617.53	-43.73
617.88	-23.28
618.23	-18.76
618.58	-13.45
618.93	-20.34
619.28	-17.06
619.63	-37.74
619.98	-14.12
620.33	-5.88
620.68	-17.17
621.03	-23.73
621.38	-16.84
621.73	-4.41
622.08	-9.15
622.43	-11.75
622.78	-21.47
623.13	-19.66
623.48	-6.33
623.82	-16.95
624.17	-33.11
624.52	-25.54
624.87	-20.45
625.22	-16.95
625.57	-13.45
625.92	-28.47
626.27	-18.76
626.62	-11.41
626.97	2.60
627.32	-14.01
627.66	-20.00
628.01	-18.19
628.36	-30.85
628.71	-38.53
629.06	-13.22
629.41	-14.58
629.76	-25.42
630.11	-20.45
630.45	-24.97
630.80	-25.42
631.15	-12.32
631.50	-22.26
631.85	-25.31
632.20	-16.38
632.54	-25.54
632.89	-22.26
633.24	-7.23
633.59	4.41
633.94	0.90
634.29	-37.63
634.63	-25.42
634.98	-19.89
635.33	-22.60
635.68	-11.64
636.02	-15.59
636.37	-28.02
636.72	-1.02
637.07	-8.36
637.42	-20.34
637.76	-17.51
638.11	-9.04
638.46	-31.86
638.81	-12.09
639.15	-12.99
639.50	-31.41
639.85	-0.11
640.20	-13.11
640.54	-22.82
640.89	-0.90
641.24	-7.57
641.58	-10.85
641.93	-23.16
642.28	-14.91
642.63	-0.68
642.97	-12.77
643.32	3.95
643.67	-13.78
644.01	-19.66
644.36	-27.80
644.71	-27.46
645.05	0.68
645.40	-2.15
645.75	-26.10
646.09	-22.71
646.44	-13.56
646.79	-11.19
647.13	-18.53
647.48	-11.53
647.83	5.08
648.17	-24.86
648.52	-11.75
648.86	-15.59
649.21	-16.50
649.56	-15.82
649.90	-2.26
650.25	-8.36
650.60	-13.67
650.94	12.88
651.29	-18.30
651.63	14.91
651.98	-15.03
652.33	-17.63
652.67	-14.35
653.02	-33.56
653.36	4.29
653.71	4.97
654.05	-8.36
654.40	0.11
654.74	-4.75
655.09	-15.93
655.44	-5.31
655.78	-6.89
656.13	-10.28
656.47	-6.10
656.82	-11.07
657.16	-10.06
657.51	-14.58
657.85	-13.67
658.20	-3.50
658.54	-7.91
658.89	5.31
659.23	-17.74
659.58	-1.47
659.92	-12.32
660.27	-4.07
660.61	-28.02
660.96	-1.81
661.30	-3.28
661.65	-15.48
661.99	-6.44
662.33	13.67
662.68	4.86
663.02	-2.26
663.37	12.09
663.71	9.72
664.06	17.17
664.40	1.81
664.75	-6.55
665.09	-9.04
665.43	6.44
665.78	-14.12
666.12	13.78
666.47	11.30
666.81	15.37
667.15	10.62
667.50	-7.57
667.84	5.08
668.19	22.26
668.53	7.46
668.87	9.27
669.22	9.15
669.56	3.50
669.90	12.32
670.25	12.66
670.59	23.95
670.93	18.87
671.28	38.53
671.62	16.61
671.96	12.54
672.31	24.86
672.65	35.37
672.99	38.19
673.34	22.60
673.68	4.75
674.02	37.51
674.37	19.77
674.71	29.83
675.05	28.81
675.40	16.16
675.74	39.32
676.08	28.36
676.42	61.02
676.77	35.71
677.11	59.09
677.45	45.54
677.79	37.40
678.14	42.82
678.48	59.66
678.82	45.99
679.16	48.59
679.51	58.98
679.85	44.74
680.19	60.90
680.53	65.76
680.88	70.39
681.22	75.03
681.56	64.86
681.90	58.08
682.24	61.69
682.59	66.78
682.93	84.63
683.27	75.82
683.61	74.69
683.95	66.44
684.29	89.49
684.64	90.73
684.98	99.55
685.32	95.70
685.66	100.45
686.00	122.14
686.34	81.24
686.69	106.89
687.03	94.12
687.37	114.46
687.71	110.28
688.05	114.23
688.39	114.80
688.73	123.73
689.07	118.87
689.41	126.55
689.76	141.92
690.10	116.49
690.44	134.57
690.78	143.50
691.12	144.18
691.46	147.23
691.80	169.60
692.14	157.96
692.48	185.42
692.82	169.15
693.16	179.32
693.50	189.26
693.84	201.80
694.18	200.22
694.53	212.31
694.87	211.86
695.21	207.23
695.55	225.08
695.89	222.25
696.23	241.46
696.57	249.60
696.91	263.61
697.25	252.20
697.59	259.09
697.93	282.25
698.27	279.77
698.61	270.95
698.95	288.35
699.29	296.83
699.63	318.41
699.97	302.93
700.30	319.09
700.64	340.78
700.98	340.89
701.32	342.48
701.66	372.98
702.00	354.79
702.34	371.06
702.68	389.82
703.02	419.20
703.36	412.76
703.70	412.64
704.04	430.95
704.38	445.07
704.72	456.15
705.05	459.08
705.39	493.43
705.73	486.88
706.07	479.54
706.41	498.63
706.75	522.59
707.09	541.34
707.43	562.47
707.77	572.53
708.10	575.01
708.44	569.25
708.78	611.51
709.12	626.99
709.46	638.06
709.80	632.30
710.13	673.65
710.47	671.51
710.81	697.38
711.15	723.03
711.49	733.20
711.82	766.87
712.16	788.11
712.50	787.21
712.84	818.96
713.18	826.53
713.51	840.20
713.85	886.30
714.19	887.89
714.53	903.14
714.87	936.36
715.20	949.24
715.54	967.77
715.88	994.78
716.22	996.02
716.55	1034.21
716.89	1070.14
717.23	1109.46
717.57	1115.90
717.90	1152.63
718.24	1160.20
718.58	1181.32
718.91	1216.58
719.25	1244.83
719.59	1271.83
719.93	1316.12
720.26	1349.46
720.60	1385.27
720.94	1404.26
721.27	1433.30
721.61	1462.22
721.95	1521.43
722.28	1550.47
722.62	1586.40
722.96	1612.95
723.29	1656.91
723.63	1723.34
723.97	1739.62
724.30	1751.03
724.64	1818.60
724.97	1891.25
725.31	1905.26
725.65	1942.21
725.98	2009.78
726.32	2048.53
726.66	2111.02
726.99	2187.63
727.33	2221.75
727.66	2280.17
728.00	2320.50
728.33	2406.83
728.67	2456.21
729.01	2534.96
729.34	2574.28
729.68	2646.60
730.01	2668.07
730.35	2754.16
730.68	2828.29
731.02	2872.47
731.36	2956.42
731.69	3010.09
732.03	3093.70
732.36	3168.96
732.70	3246.92
733.03	3327.37
733.37	3384.66
733.70	3475.73
734.04	3582.39
734.37	3633.80
734.71	3722.73
735.04	3834.70
735.38	3895.49
735.71	3985.77
736.05	4106.22
736.38	4125.99
736.72	4238.65
737.05	4337.51
737.38	4435.48
737.72	4483.95
738.05	4626.43
738.39	4671.18
738.72	4777.50
739.06	4863.15
739.39	4975.58
739.73	5112.41
740.06	5163.03
740.39	5282.46
740.73	5397.71
741.06	5484.60
741.40	5546.41
741.73	5696.57
742.06	5811.82
742.40	5935.66
742.73	5988.88
743.07	6114.19
743.40	6255.65
743.73	6379.49
744.07	6455.76
744.40	6574.52
744.73	6728.30
745.07	6814.06
745.40	6962.64
745.73	7073.26
746.07	7163.43
746.40	7309.86
746.73	7414.61
747.07	7515.40
747.40	7643.41
747.73	7807.82
748.07	7859.57
748.40	8018.77
748.73	8122.84
749.07	8316.50
749.40	8441.92
749.73	8543.84
750.06	8676.95
750.40	8776.04
750.73	8934.12
751.06	9065.07
751.40	9213.20
751.73	9330.83
752.06	9511.73
752.39	9617.94
752.73	9747.43
753.06	9930.25
753.39	10058.49
753.72	10150.81
754.05	10277.02
754.39	10390.80
754.72	10578.59
755.05	10740.40
755.38	10839.49
755.72	10926.27
756.05	11018.24
756.38	11258.91
756.71	11382.75
757.04	11542.07
757.37	11607.27
757.71	11789.86
758.04	11861.72
758.37	11958.44
758.70	12044.20
759.03	12276.40
759.36	12384.42
759.70	12519.67
760.03	12616.28
760.36	12783.51
760.69	12978.30
761.02	13076.72
761.35	13131.52
761.68	13283.49
762.01	13384.73
762.35	13460.66
762.68	13538.97
763.01	13729.92
763.34	13805.06
763.67	13846.42
764.00	13927.20
764.33	13997.94
764.66	14062.23
764.99	14154.77
765.32	14218.95
765.65	14368.55
765.98	14536.68
766.31	14356.12
766.65	14340.75
766.98	14460.52
767.31	14564.14
767.64	14683.00
767.97	14543.46
768.30	14576.79
768.63	14635.66
768.96	14457.92
769.29	14526.96
769.62	14550.69
769.95	14592.61
770.28	14557.70
770.61	14493.40
770.94	14542.67
771.27	14506.96
771.60	14484.93
771.93	14482.90
772.26	14363.35
772.59	14270.92
772.92	14359.17
773.24	14333.75
773.57	14266.97
773.90	14153.30
774.23	14182.90
774.56	14109.01
774.89	14033.08
775.22	13862.57
775.55	13916.24
775.88	13658.74
776.21	13603.60
776.54	13519.19
776.87	13352.42
777.19	13295.24
777.52	13227.34
777.85	13022.37
778.18	12959.66
778.51	12756.05
778.84	12689.16
779.17	12640.68
779.50	12599.56
779.82	12378.21
780.15	12230.30
780.48	12126.01
780.81	11998.78
781.14	11907.71
781.47	11773.59
781.80	11593.48
782.12	11564.67
782.45	11369.76
782.78	11349.08
783.11	11175.30
783.44	10925.14
783.76	10931.69
784.09	10645.14
784.42	10565.26
784.75	10446.17
785.08	10284.02
785.40	10164.70
785.73	10074.42
786.06	9784.04
786.39	9744.26
786.71	9636.81
787.04	9582.91
787.37	9336.82
787.70	9166.54
788.02	9073.66
788.35	8851.86
788.68	8727.91
789.00	8589.60
789.33	8413.79
789.66	8278.31
789.99	8137.53
790.31	7979.90
790.64	7887.02
790.97	7691.32
791.29	7647.14
791.62	7447.71
791.95	7318.34
792.27	7214.50
792.60	7134.84
792.93	6937.22
793.25	6780.39
793.58	6741.74
793.91	6612.03
794.23	6424.46
794.56	6325.48
794.89	6186.50
795.21	6195.43
795.54	5978.94
795.87	5926.17
796.19	5771.60
796.52	5643.24
796.84	5552.06
797.17	5449.57
797.50	5353.08
797.82	5212.74
798.15	5135.80
798.47	5010.15
798.80	4899.19
799.12	4851.85
799.45	4710.95
799.78	4589.26
800.10	4501.46
800.43	4392.88
800.75	4232.32
801.08	4186.44
801.40	4081.81
801.73	3964.64
802.05	3871.08
802.38	3806.34
802.70	3697.53
803.03	3626.35
803.35	3518.89
803.68	3458.67
804.00	3383.75
804.33	3288.95
804.65	3199.80
804.98	3113.03
805.30	2990.88
805.63	2938.34
805.95	2831.90
806.28	2781.06
806.60	2653.38
806.93	2589.99
807.25	2525.58
807.58	2488.18
807.90	2414.06
808.22	2317.34
808.55	2292.60
808.87	2209.77
809.20	2134.41
809.52	2084.35
809.85	2024.35
810.17	1943.11
810.49	1874.08
810.82	1847.97
811.14	1780.41
811.47	1717.69
811.79	1666.51
812.11	1613.18
812.44	1552.39
812.76	1526.17
813.08	1451.37
813.41	1430.58
813.73	1351.15
814.05	1321.66
814.38	1274.54
814.70	1235.45
815.02	1200.08
815.35	1169.35
815.67	1101.44
815.99	1101.21
816.32	1070.71
816.64	1024.04
816.96	1008.67
817.29	967.66
817.61	946.75
817.93	913.20
818.26	876.14
818.58	844.84
818.90	823.37
819.22	801.11
819.55	777.04
819.87	756.93
820.19	725.63
820.51	710.94
820.84	645.41
821.16	675.80
821.48	626.54
821.80	611.51
822.13	601.68
822.45	567.56
822.77	556.26
823.09	551.96
823.41	538.06
823.74	531.29
824.06	496.03
824.38	481.80
824.70	470.38
825.02	444.17
825.35	449.14
825.67	428.46
825.99	413.89
826.31	400.78
826.63	405.64
826.95	379.09
827.27	369.37
827.60	353.21
827.92	370.50
828.24	337.39
828.56	332.53
828.88	312.20
829.20	325.53
829.52	302.25
829.84	295.59
830.17	296.38
830.49	267.79
830.81	278.30
831.13	252.31
831.45	243.50
831.77	248.02
832.09	248.02
832.41	231.86
832.73	227.68
833.05	236.72
833.37	235.81
833.69	197.85
834.01	222.82
834.33	195.02
834.65	167.11
834.97	177.17
835.29	169.37
835.61	171.07
835.94	181.58
836.26	175.36
836.58	149.26
836.90	141.13
837.21	153.89
837.53	147.68
837.85	145.87
838.17	158.53
838.49	128.13
838.81	126.44
839.13	121.35
839.45	115.36
839.77	122.14
840.09	96.04
840.41	124.86
840.73	106.66
841.05	101.01
841.37	106.78
841.69	90.05
842.01	101.69
842.33	84.97
842.65	85.87
842.96	65.42
843.28	66.10
843.60	80.00
843.92	57.96
844.24	98.64
844.56	85.31
844.88	60.90
845.20	50.06
845.52	65.87
845.83	63.50
846.15	43.84
846.47	76.83
846.79	47.12
847.11	47.23
847.43	37.97
847.74	65.65
848.06	33.33
848.38	54.46
848.70	51.19
849.02	36.38
849.33	45.65
849.65	34.69
849.97	43.84
850.29	25.65
850.61	26.78
850.92	35.93
851.24	20.11
851.56	29.94
851.88	26.44
852.19	29.60
852.51	16.27
852.83	28.36
853.15	18.98
853.46	11.07
853.78	22.49
854.10	22.37
854.42	17.97
854.73	11.75
855.05	-4.63
855.37	17.51
855.68	17.85
856.00	3.95
856.32	-15.14
856.63	-9.15
856.95	1.24
857.27	6.44
857.59	-10.62
857.90	-2.03
858.22	-2.94
858.53	-9.38
858.85	-0.23
859.17	0.34
859.48	-1.58
859.80	1.02
860.12	-18.76
860.43	-2.60
860.75	-13.33
861.07	-1.69
861.38	-20.45
861.70	-9.38
862.01	-8.02
862.33	-31.41
862.65	-13.78
862.96	-13.45
863.28	-15.93
863.59	-9.60
863.91	-17.29
864.22	-22.37
864.54	-17.85
864.86	-3.39
865.17	-7.12
865.49	-6.55
865.80	-4.29
866.12	-42.82
866.43	-22.15
866.75	5.88
867.06	-1.92
867.38	-8.59
867.69	-21.47
868.01	-24.29
868.32	-20.23
868.64	-5.31
868.95	-23.73
869.27	-15.37
869.58	-12.32
869.90	-15.25
870.21	-11.75
870.53	-9.49
870.84	-7.01
871.15	-2.94
871.47	-8.59
871.78	3.84
872.10	-27.23
872.41	-6.10
872.73	-18.08
873.04	-23.84
873.36	-17.74
873.67	-0.56
873.98	-21.24
874.30	9.38
874.61	-18.76
874.93	-23.50
875.24	-5.08
875.55	0.00
875.87	-14.24
876.18	-4.97
876.49	-17.29
876.81	-11.53
877.12	-28.13
877.43	-17.17
877.75	-21.24
878.06	-10.06
878.37	-22.26
878.69	4.07
879.00	-14.91
879.31	-19.89
879.63	-14.12
879.94	-2.15
880.25	-21.58
880.57	-1.69
880.88	-10.96
881.19	-3.39
881.50	-27.68
881.82	-10.06
882.13	-5.31
882.44	-7.34
882.76	-26.89
883.07	-28.70
883.38	-15.03
883.69	-13.33
884.01	-30.39
884.32	-14.46
884.63	-23.05
884.94	-8.25
885.25	-19.10
885.57	-8.59
885.88	-15.14
886.19	-21.69
886.50	-26.10
886.81	-27.23
887.13	-6.78
887.44	-12.88
887.75	-6.10
888.06	-19.43
888.37	0.56
888.69	-18.98
889.00	-30.28
889.31	-10.40
889.62	-18.30
889.93	-14.24
890.24	-3.28
890.55	-21.92
890.87	-21.47
891.18	10.51
891.49	-14.69
891.80	-14.12
892.11	-27.91
892.42	-14.69
892.73	-13.22
893.04	-14.46
893.35	-13.56
893.66	-15.03
893.98	-27.57
894.29	-17.17
894.60	-33.45
894.91	-35.37
895.22	-27.68
895.53	-18.08
895.84	-8.81
896.15	-33.67
896.46	-15.48
896.77	-25.76
897.08	-33.22
897.39	-28.25
897.70	-11.64
898.01	-19.43
898.32	-51.75
898.63	-20.90
898.94	7.12
899.25	-20.45
899.56	-7.01
899.87	-15.59
900.18	0.68
900.49	-23.16
900.80	-26.33
901.11	-36.16
901.42	-24.29
901.73	-5.99
902.04	-24.29
902.35	-2.60
902.66	-48.59
902.96	-27.91
903.27	-28.02
903.58	-32.20
903.89	-7.57
904.20	-2.60
904.51	-33.78
904.82	-34.12
905.13	-39.55
905.44	-37.85
905.75	-23.28
906.05	-24.97
906.36	-25.76
906.67	-21.92
906.98	-29.15
907.29	-19.10
907.60	-30.06
907.91	-7.57
908.21	-27.80
908.52	-20.56
908.83	-31.52
909.14	-22.03
909.45	-23.50
909.75	-30.39
910.06	-13.67
910.37	-23.28
910.68	-11.19
910.99	-12.20
911.29	-15.82
911.60	-24.52
911.91	-13.78
912.22	-16.27
912.52	-20.11
912.83	-21.24
913.14	-16.61
913.45	-22.26
913.75	-25.31
914.06	-20.34
914.37	-32.20
914.68	-21.47
914.98	-33.78
915.29	-35.37
915.60	-26.44
915.91	-14.01
916.21	-23.50
916.52	-22.37
916.83	-40.68
917.13	-17.85
917.44	-10.40
917.75	-25.88
918.05	-10.96
918.36	-16.16
918.67	-37.40
918.97	-26.78
919.28	-17.85
919.59	-35.59
919.89	-23.62
920.20	-18.98
920.50	-26.10
920.81	-21.24
921.12	-26.89
921.42	-25.88
921.73	-40.34
922.03	-34.58
922.34	-31.07
922.65	-10.96
922.95	-20.34
923.26	-19.66
923.56	-29.15
923.87	-36.16
924.18	-33.45
924.48	-15.14
924.79	-2.03
925.09	-17.85
925.40	-11.86
925.70	-29.04
926.01	-25.76
926.31	-15.48
926.62	-47.00
926.92	-22.71
927.23	-38.76
927.53	-27.00
927.84	-12.77
928.14	-29.60
928.45	-22.71
928.75	-2.60
929.06	-12.09
929.36	-22.49
929.67	-31.41
929.97	-34.58
930.28	-8.81
930.58	1.47
930.89	-32.99
931.19	-38.87
931.49	-32.65
931.80	-40.90
932.10	-18.98
932.41	-38.98
932.71	-22.26
933.01	-11.64
933.32	-7.34
933.62	-23.28
933.93	-18.42
934.23	-16.50
934.53	-33.78
934.84	-9.72
935.14	-19.10
935.45	-16.16
935.75	-27.68
936.05	-34.46
936.36	-26.55
936.66	-6.21
936.96	-11.30
937.27	-13.11
937.57	-13.56
937.87	-34.35
938.18	-25.99
938.48	-32.88
938.78	-24.18
939.08	-53.33
939.39	-10.17
939.69	-30.51
939.99	-27.68
940.30	-15.48
940.60	-18.30
940.90	-26.44
941.20	-13.90
941.51	-20.68
941.81	-21.47
942.11	-28.36
942.41	-18.76
942.72	-18.64
943.02	-27.23
943.32	-46.67
943.62	-17.63
943.93	-34.35
944.23	-14.58
944.53	-9.38
944.83	-18.42
945.13	-7.34
945.44	-25.88
945.74	-18.53
946.04	-17.63
946.34	-13.22
946.64	-36.61
946.94	0.56
947.25	-25.08
947.55	-28.59
947.85	-16.84
948.15	-23.05
948.45	-18.30
948.75	-40.22
949.05	-40.79
949.35	-29.49
949.66	-13.56
949.96	-5.31
950.26	-33.90
950.56	-18.08
950.86	-33.67
951.16	-37.51
951.46	-11.98
951.76	-21.58
952.06	-28.70
952.36	-13.45
952.66	-22.71
952.96	-22.26
953.26	-36.27
953.57	-24.41
953.87	-9.83
954.17	-26.21
954.47	-36.04
954.77	-48.70
955.07	-18.87
955.37	-18.87
955.67	-17.40
955.97	-14.01
956.27	-3.95
956.57	-11.41
956.87	-39.43
957.17	-31.75
957.47	-11.98
957.77	-13.90
958.06	-7.68
958.36	-30.73
958.66	-14.01
958.96	-21.02
959.26	-30.06
959.56	-21.92
959.86	-24.97
960.16	-23.62
960.46	-17.97
960.76	-12.43
961.06	-26.44
961.36	-28.70
961.66	-10.51
961.95	-25.20
962.25	-10.96
962.55	-32.20
962.85	-14.58
963.15	-18.30
963.45	-6.44
963.75	-16.04
964.05	-25.54
964.34	-17.51
964.64	-32.88
964.94	-20.34
965.24	-34.69
965.54	-28.25
965.83	-14.80
966.13	-19.66
966.43	-11.75
966.73	-9.83
967.03	-18.64
967.32	-18.19
967.62	-6.67
967.92	-23.28
968.22	-24.29
968.52	-25.88
968.81	-45.99
969.11	-27.80
969.41	-15.71
969.71	-16.50
970.00	-6.67
970.30	-15.37
970.60	-8.81
970.90	-20.11
971.19	-25.42
971.49	-42.03
971.79	-31.19
972.08	-30.39
972.38	-35.82
972.68	-19.55
972.97	-16.95
973.27	-17.74
973.57	-27.12
973.87	-9.83
974.16	-31.86
974.46	-24.97
974.75	-21.69
975.05	-22.15
975.35	-13.78
975.64	-30.39
975.94	-30.28
976.24	-9.38
976.53	-20.45
976.83	-14.91
977.13	-16.84
977.42	-11.86
977.72	-4.63
978.01	-29.04
978.31	-22.60
978.60	-24.29
978.90	-21.36
979.20	-36.04
979.49	-32.99
979.79	-18.19
980.08	-14.46
980.38	-21.58
980.67	-10.28
980.97	-21.02
981.26	-30.17
981.56	-18.42
981.86	-7.91
982.15	-19.77
982.45	-18.30
982.74	-5.42
983.04	-11.53
983.33	-16.27
983.63	-24.29
983.92	-19.89
984.21	-20.11
984.51	-28.25
984.80	-8.59
985.10	-32.99
985.39	-22.49
985.69	-28.81
985.98	-50.39
986.28	-41.02
986.57	-30.39
986.87	-2.49
987.16	-37.29
987.45	-25.54
987.75	-12.66
988.04	-10.40
988.34	-18.87
988.63	-22.03
988.92	-21.92
989.22	-33.11
989.51	-37.06
989.80	-28.36
990.10	-8.81
990.39	-31.41
990.69	-38.30
990.98	-27.68
991.27	-21.69
991.57	-15.71
991.86	-10.17
992.15	-20.00
992.45	-26.10
992.74	-26.78
993.03	-30.28
993.33	-31.19
993.62	-10.51
993.91	-36.72
994.20	-23.16
994.50	-48.93
994.79	-34.01
995.08	-31.19
995.37	-20.90
995.67	-27.12
995.96	-22.71
996.25	-19.66
996.54	-11.41
996.84	-18.08
997.13	-28.02
997.42	-42.82
997.71	-26.78
998.01	-8.47
998.30	-33.56
998.59	-11.30
998.88	-32.43
999.17	-11.75
999.47	-21.36
999.76	-12.20
1000.05	-29.60
1000.34	-16.61
1000.63	-18.64
1000.92	-18.19
1001.22	-10.06
1001.51	-25.99
1001.80	-22.15
1002.09	-7.80
1002.38	-22.49
1002.67	-18.87
1002.96	-25.54
1003.26	-24.29
1003.55	-16.16
1003.84	-28.59
1004.13	-1.24
1004.42	-8.47
1004.71	-51.19
1005.00	-18.98
1005.29	18.19
1005.58	-29.04
1005.87	-7.80
1006.16	-34.24
1006.45	-19.89
1006.74	-14.58
1007.04	-7.57
1007.33	-14.46
1007.62	-32.65
1007.91	-10.17
1008.20	-25.65
1008.49	-40.68
1008.78	-36.27
1009.07	-14.12
1009.36	-15.25
1009.65	-31.64
1009.94	-27.57
1010.23	-17.29
1010.52	-24.97
1010.81	-27.12
1011.10	-15.93
1011.38	-37.51
1011.67	-30.39
1011.96	-12.20
1012.25	-11.86
1012.54	-26.67
1012.83	-30.62
1013.12	-39.66
1013.41	-35.14
1013.70	-38.08
1013.99	-22.37
1014.28	-8.70
1014.57	-18.53
1014.86	-23.84
1015.14	-21.24
1015.43	-31.52
1015.72	-22.26
1016.01	-15.37
1016.30	-7.12
1016.59	-26.44
1016.88	-21.47
1017.16	-23.73
1017.45	-22.82
1017.74	-33.11
1018.03	-28.59
1018.32	-40.22
1018.61	-32.88
1018.89	-4.07
1019.18	-33.67
1019.47	-19.89
1019.76	-23.95
1020.05	-21.36
1020.33	-19.66
1020.62	-11.41
1020.91	-9.38
1021.20	-29.94
1021.48	-23.50
1021.77	-23.39
1022.06	-34.80
1022.35	-16.38
1022.63	-19.21
1022.92	-22.82
1023.21	1.02
1023.50	-30.62
1023.78	-21.13
1024.07	-12.54
1024.36	-15.82
1024.64	-19.66
1024.93	-22.15
1025.22	-39.21
1025.50	-18.98
1025.79	-23.50
1026.08	-21.81
1026.36	-19.10
1026.65	-28.93
1026.94	-18.19
1027.22	-32.32
1027.51	0.56
1027.80	-12.32
1028.08	-9.60
1028.37	-37.17
1028.66	-15.03
1028.94	-26.89
>>>>>End Processed Spectral Data<<<<<
