SpectraSuite Data File
++++++++++++++++++++++++++++++++++++
Date: Thu Jun 15 11:39:20 BST 2017
User: Eng0000912
Dark Spectrum Present: Yes
Reference Spectrum Present: No
Number of Sampled Component Spectra: 1
Spectrometers: USB2+H04851
Integration Time (usec): 100000 (USB2+H04851)
Spectra Averaged: 20 (USB2+H04851)
Boxcar Smoothing: 0 (USB2+H04851)
Correct for Electrical Dark: No (USB2+H04851)
Strobe/Lamp Enabled: No (USB2+H04851)
Correct for Detector Non-linearity: No (USB2+H04851)
Correct for Stray Light: No (USB2+H04851)
Number of Pixels in Processed Spectrum: 2048
>>>>>Begin Processed Spectral Data<<<<<
340.07	-3.39
340.45	-3.39
340.82	-3.39
341.20	-30.39
341.58	-32.65
341.96	5.20
342.34	-31.30
342.72	-16.16
343.10	-45.42
343.48	-27.91
343.85	-28.36
344.23	-16.61
344.61	-9.27
344.99	-11.75
345.37	-12.77
345.75	-28.36
346.13	-34.35
346.50	-28.59
346.88	-8.70
347.26	-25.76
347.64	-39.32
348.02	-20.45
348.40	-22.03
348.77	-15.93
349.15	-22.60
349.53	-19.32
349.91	-16.84
350.29	-7.80
350.66	-17.63
351.04	-18.53
351.42	-19.32
351.80	-27.12
352.18	-9.49
352.55	-18.76
352.93	-20.79
353.31	-18.08
353.69	-27.34
354.07	-20.68
354.44	-17.97
354.82	-18.30
355.20	-28.25
355.58	-13.56
355.95	-22.94
356.33	-28.13
356.71	-31.98
357.09	-34.80
357.46	-34.35
357.84	-28.70
358.22	-13.22
358.60	-42.71
358.97	-25.08
359.35	-18.53
359.73	-4.63
360.10	-11.75
360.48	-11.07
360.86	-31.30
361.24	-24.86
361.61	-17.06
361.99	-27.91
362.37	-27.80
362.74	-33.11
363.12	-12.32
363.50	-29.83
363.87	-24.86
364.25	-19.89
364.63	-56.61
365.01	-29.15
365.38	-37.74
365.76	-14.24
366.14	-26.78
366.51	-29.38
366.89	-16.61
367.27	-21.02
367.64	-13.56
368.02	-35.14
368.39	-18.76
368.77	-16.50
369.15	-34.24
369.52	-15.03
369.90	-36.84
370.28	-29.38
370.65	-21.02
371.03	-21.02
371.40	-29.15
371.78	-7.46
372.16	-31.98
372.53	-28.81
372.91	-24.07
373.28	-26.67
373.66	-32.54
374.04	-28.47
374.41	-18.64
374.79	-24.18
375.16	-27.91
375.54	-27.80
375.92	-22.94
376.29	-29.49
376.67	-23.84
377.04	-21.58
377.42	-31.64
377.79	-17.40
378.17	-23.62
378.55	-5.65
378.92	-15.48
379.30	-23.50
379.67	-31.98
380.05	-4.29
380.42	-21.69
380.80	-22.82
381.17	-15.03
381.55	-12.77
381.92	-31.41
382.30	-24.52
382.67	-36.61
383.05	-18.64
383.42	-29.38
383.80	-45.54
384.17	-5.31
384.55	-18.42
384.92	-33.90
385.30	-32.99
385.67	-22.37
386.05	-11.07
386.42	-19.10
386.80	-30.96
387.17	-29.26
387.55	-31.52
387.92	-18.87
388.30	-17.74
388.67	-25.08
389.04	-19.21
389.42	-20.00
389.79	-29.26
390.17	-26.33
390.54	-21.92
390.92	-23.16
391.29	-22.03
391.67	-10.06
392.04	-14.46
392.41	-14.24
392.79	-30.39
393.16	-7.01
393.54	-33.67
393.91	-35.14
394.28	-16.72
394.66	-19.32
395.03	-23.50
395.41	-17.40
395.78	-10.28
396.15	-17.74
396.53	-35.14
396.90	-22.82
397.28	-22.15
397.65	-17.97
398.02	-11.64
398.40	-24.07
398.77	-15.37
399.14	-17.29
399.52	-39.77
399.89	-38.08
400.26	-31.98
400.64	-16.72
401.01	-27.00
401.38	2.94
401.76	-12.20
402.13	-5.65
402.50	-2.03
402.88	-8.47
403.25	-17.97
403.62	-25.88
404.00	-2.94
404.37	-39.10
404.74	-28.93
405.12	-28.93
405.49	-7.91
405.86	-22.37
406.23	-35.48
406.61	-0.45
406.98	-30.06
407.35	-28.81
407.73	-40.00
408.10	-5.76
408.47	-24.97
408.84	-16.95
409.22	-34.24
409.59	-9.60
409.96	-28.59
410.33	-26.44
410.71	-30.39
411.08	-16.04
411.45	-34.12
411.82	-22.71
412.20	-4.86
412.57	-24.29
412.94	-17.06
413.31	-14.69
413.68	-9.04
414.06	-38.87
414.43	-16.50
414.80	-25.76
415.17	-2.37
415.55	-31.86
415.92	-23.62
416.29	-19.66
416.66	-19.43
417.03	-17.51
417.40	-21.58
417.78	-14.91
418.15	-27.80
418.52	-4.18
418.89	-9.04
419.26	-23.16
419.63	-20.79
420.01	-26.33
420.38	-11.41
420.75	-31.86
421.12	-34.91
421.49	-22.37
421.86	0.79
422.23	-18.87
422.61	-35.37
422.98	-34.91
423.35	-23.50
423.72	-27.46
424.09	-27.80
424.46	-2.49
424.83	-51.19
425.20	-29.15
425.58	-13.11
425.95	-18.53
426.32	-34.69
426.69	-17.63
427.06	-12.99
427.43	-25.42
427.80	-21.02
428.17	-14.80
428.54	-0.68
428.91	-17.63
429.28	-20.23
429.65	-28.59
430.02	-14.69
430.40	-18.19
430.77	-18.98
431.14	-30.85
431.51	-15.25
431.88	-12.43
432.25	-19.55
432.62	-23.84
432.99	-25.99
433.36	-31.41
433.73	-30.96
434.10	-23.95
434.47	-37.74
434.84	-25.42
435.21	-19.77
435.58	-8.36
435.95	-15.59
436.32	-34.46
436.69	-31.52
437.06	-21.13
437.43	-29.26
437.80	-28.13
438.17	-27.57
438.54	-6.44
438.91	-13.67
439.28	-18.87
439.65	-37.74
440.02	-10.73
440.39	-20.00
440.76	-35.48
441.13	-11.07
441.49	-9.72
441.86	-23.05
442.23	-18.08
442.60	-27.12
442.97	-27.46
443.34	-23.50
443.71	-26.67
444.08	-42.60
444.45	-11.07
444.82	-37.51
445.19	-18.76
445.56	-27.80
445.93	-25.88
446.29	-26.44
446.66	-34.12
447.03	-47.57
447.40	-19.10
447.77	-15.03
448.14	-36.84
448.51	-24.41
448.88	-17.06
449.24	-0.90
449.61	-23.73
449.98	-18.87
450.35	-30.73
450.72	-20.68
451.09	-18.64
451.46	-17.63
451.82	-5.08
452.19	-30.73
452.56	-3.95
452.93	-15.82
453.30	-8.70
453.67	-19.55
454.03	-40.34
454.40	-21.36
454.77	-19.32
455.14	-24.75
455.51	-19.21
455.87	-36.27
456.24	-8.25
456.61	-25.08
456.98	-24.18
457.35	-28.13
457.71	-28.70
458.08	-36.84
458.45	-10.06
458.82	-20.34
459.19	-12.66
459.55	-23.28
459.92	-24.18
460.29	-25.54
460.66	-39.32
461.02	-13.56
461.39	-12.32
461.76	-22.82
462.13	-30.62
462.49	-16.84
462.86	-19.89
463.23	-22.03
463.59	0.34
463.96	-15.48
464.33	-7.01
464.70	-10.85
465.06	-19.77
465.43	-1.58
465.80	-23.28
466.16	-20.34
466.53	-24.18
466.90	-15.71
467.26	-34.12
467.63	-30.85
468.00	-20.68
468.36	-15.03
468.73	-19.89
469.10	-25.99
469.46	-8.25
469.83	-30.28
470.20	-35.71
470.56	-36.50
470.93	-20.56
471.30	-18.87
471.66	-25.99
472.03	-20.45
472.40	-19.55
472.76	-13.67
473.13	-23.05
473.50	-29.83
473.86	-7.23
474.23	-9.94
474.59	-24.86
474.96	-35.93
475.33	-14.58
475.69	-21.58
476.06	-36.61
476.42	-18.30
476.79	-6.33
477.16	-21.92
477.52	-17.51
477.89	-33.22
478.25	-17.06
478.62	-24.75
478.98	-18.64
479.35	5.42
479.72	-21.92
480.08	-19.43
480.45	-12.88
480.81	-30.73
481.18	-26.55
481.54	-28.36
481.91	-20.79
482.27	-32.99
482.64	-20.68
483.00	-23.95
483.37	-24.86
483.73	-19.55
484.10	-23.50
484.46	-35.25
484.83	-6.67
485.19	-31.98
485.56	-11.53
485.92	-12.99
486.29	-37.29
486.65	-31.19
487.02	-24.86
487.38	-15.14
487.75	-23.05
488.11	-41.92
488.48	-28.93
488.84	-26.67
489.21	-28.25
489.57	-34.46
489.94	-31.07
490.30	-6.33
490.66	-18.08
491.03	-20.34
491.39	-17.63
491.76	-25.99
492.12	-11.53
492.49	-21.69
492.85	-19.21
493.21	-24.07
493.58	-2.49
493.94	0.34
494.31	-22.37
494.67	-22.37
495.03	-28.36
495.40	-15.14
495.76	-23.84
496.13	-24.86
496.49	-17.29
496.85	-24.29
497.22	-32.20
497.58	-25.99
497.94	-3.28
498.31	-10.40
498.67	-31.75
499.04	-6.33
499.40	-29.83
499.76	-31.30
500.13	-26.10
500.49	-20.00
500.85	-48.59
501.22	-23.62
501.58	-34.69
501.94	-11.86
502.31	-1.13
502.67	-12.88
503.03	-30.28
503.40	-2.60
503.76	-25.54
504.12	-19.32
504.48	-14.24
504.85	-15.25
505.21	-51.64
505.57	-32.77
505.94	-11.19
506.30	-17.63
506.66	-12.99
507.02	-23.73
507.39	-8.14
507.75	-22.37
508.11	-33.56
508.47	-17.63
508.84	-22.37
509.20	-6.21
509.56	-16.04
509.92	-28.02
510.29	-15.71
510.65	-13.56
511.01	-31.86
511.37	-30.96
511.74	0.68
512.10	-26.44
512.46	-12.66
512.82	-17.51
513.18	-17.40
513.55	-11.86
513.91	-13.90
514.27	-29.83
514.63	-32.32
514.99	-16.04
515.35	-28.02
515.72	-33.78
516.08	-29.72
516.44	-42.37
516.80	-20.11
517.16	-31.75
517.52	-22.94
517.89	-7.34
518.25	-36.38
518.61	-33.45
518.97	-6.89
519.33	-23.62
519.69	-10.51
520.05	-25.99
520.42	-28.47
520.78	-18.30
521.14	-25.76
521.50	-37.97
521.86	-36.38
522.22	-5.42
522.58	-10.62
522.94	-24.97
523.30	-14.91
523.67	-14.35
524.03	-35.71
524.39	-22.03
524.75	-37.40
525.11	-17.40
525.47	-12.88
525.83	-27.80
526.19	-18.19
526.55	6.10
526.91	-4.07
527.27	-16.84
527.63	-12.43
527.99	-29.60
528.35	-16.50
528.71	-15.93
529.07	-25.99
529.43	-22.26
529.79	-30.96
530.15	-11.53
530.51	-34.58
530.87	-7.46
531.23	-9.15
531.59	-12.09
531.95	-9.15
532.31	-47.23
532.67	-27.68
533.03	-31.86
533.39	-21.69
533.75	-9.60
534.11	-47.68
534.47	-12.99
534.83	-22.49
535.19	-12.66
535.55	-9.27
535.91	-34.35
536.27	-34.91
536.63	-33.45
536.99	-27.80
537.35	-34.35
537.71	-8.47
538.07	-20.23
538.43	-3.50
538.79	-24.18
539.15	-16.27
539.51	-32.65
539.86	-11.53
540.22	-32.88
540.58	-40.45
540.94	-17.17
541.30	-27.57
541.66	-20.11
542.02	-11.41
542.38	-17.85
542.74	-25.08
543.09	-29.38
543.45	-25.08
543.81	-18.30
544.17	-20.23
544.53	-36.61
544.89	-21.47
545.25	-13.56
545.60	-30.62
545.96	-38.30
546.32	-30.51
546.68	-27.00
547.04	-16.61
547.40	-16.72
547.75	-27.80
548.11	-36.95
548.47	-27.57
548.83	-13.90
549.19	-27.34
549.55	-19.77
549.90	-34.46
550.26	-16.16
550.62	-25.54
550.98	-27.80
551.34	-29.60
551.69	-22.49
552.05	-24.75
552.41	-36.72
552.77	-32.99
553.12	-26.89
553.48	-9.27
553.84	-34.01
554.20	-16.84
554.55	-26.33
554.91	-4.97
555.27	-35.93
555.63	-14.58
555.98	-12.88
556.34	-18.87
556.70	-21.02
557.05	-5.88
557.41	-29.72
557.77	-17.29
558.13	-17.63
558.48	-21.02
558.84	-23.84
559.20	-4.07
559.55	-27.12
559.91	-20.79
560.27	-28.93
560.62	-15.03
560.98	-23.62
561.34	-12.88
561.69	-12.99
562.05	-39.55
562.41	-10.85
562.76	-17.17
563.12	-21.47
563.48	-14.91
563.83	-15.37
564.19	-25.54
564.55	-22.71
564.90	-19.32
565.26	-30.39
565.62	-15.37
565.97	-31.19
566.33	-12.43
566.68	-29.15
567.04	-25.99
567.40	-7.12
567.75	-33.22
568.11	-19.10
568.46	-17.74
568.82	-13.45
569.18	-21.13
569.53	-8.47
569.89	-21.69
570.24	9.38
570.60	-32.88
570.95	3.50
571.31	-1.13
571.66	13.56
572.02	13.90
572.38	23.28
572.73	53.22
573.09	34.12
573.44	48.25
573.80	59.66
574.15	16.84
574.51	14.58
574.86	54.46
575.22	43.28
575.57	17.17
575.93	30.96
576.28	29.72
576.64	30.96
576.99	51.52
577.35	46.44
577.70	18.87
578.06	28.36
578.41	39.77
578.77	15.71
579.12	-7.68
579.48	30.96
579.83	24.97
580.18	-5.08
580.54	9.83
580.89	10.85
581.25	7.57
581.60	14.46
581.96	-25.76
582.31	-8.25
582.67	-14.58
583.02	-12.09
583.37	-13.22
583.73	-24.29
584.08	-25.31
584.44	-6.78
584.79	-11.30
585.14	-16.84
585.50	-29.38
585.85	-37.97
586.21	-36.84
586.56	-23.95
586.91	-28.93
587.27	-34.46
587.62	-18.87
587.97	-17.29
588.33	-28.47
588.68	-6.44
589.03	-17.17
589.39	-7.34
589.74	-22.71
590.09	-17.51
590.45	-8.93
590.80	-13.22
591.15	-9.49
591.51	-17.85
591.86	-3.28
592.21	-31.64
592.57	-20.45
592.92	-8.59
593.27	-10.06
593.63	-37.85
593.98	-20.90
594.33	-44.29
594.69	-23.39
595.04	-5.31
595.39	1.92
595.74	-21.02
596.10	-14.46
596.45	-18.53
596.80	-27.34
597.15	-30.17
597.51	-4.41
597.86	-3.05
598.21	-27.80
598.56	4.63
598.92	-29.60
599.27	-14.24
599.62	-5.08
599.97	-17.74
600.32	0.11
600.68	-0.23
601.03	10.28
601.38	-27.46
601.73	-6.10
602.09	-18.64
602.44	-18.42
602.79	-46.21
603.14	-8.93
603.49	-17.17
603.84	-26.10
604.20	-13.45
604.55	-17.63
604.90	-21.58
605.25	-14.24
605.60	-24.86
605.95	-41.47
606.31	-42.60
606.66	-10.28
607.01	-9.72
607.36	-20.90
607.71	-11.86
608.06	-36.72
608.41	-27.68
608.76	-6.33
609.12	-38.19
609.47	-22.49
609.82	-30.96
610.17	-4.86
610.52	-5.99
610.87	-9.60
611.22	-21.69
611.57	-28.02
611.92	-8.36
612.27	-11.30
612.62	-22.37
612.98	-18.53
613.33	-17.17
613.68	-6.33
614.03	-17.40
614.38	-22.03
614.73	-21.47
615.08	-16.27
615.43	-15.48
615.78	-11.64
616.13	-24.41
616.48	-21.13
616.83	-13.56
617.18	-29.72
617.53	-20.68
617.88	-33.22
618.23	-9.27
618.58	-2.26
618.93	-14.35
619.28	-23.73
619.63	-32.20
619.98	-24.07
620.33	-2.94
620.68	-22.03
621.03	-21.58
621.38	-15.48
621.73	-24.41
622.08	-0.79
622.43	-16.95
622.78	2.82
623.13	-30.51
623.48	-13.22
623.82	-5.65
624.17	-13.33
624.52	-34.91
624.87	-20.90
625.22	-23.05
625.57	-26.67
625.92	-20.34
626.27	-33.78
626.62	-16.16
626.97	-14.12
627.32	-10.62
627.66	-26.33
628.01	-20.79
628.36	-27.57
628.71	-40.68
629.06	-17.29
629.41	-9.94
629.76	-8.36
630.11	-32.32
630.45	-12.77
630.80	-24.63
631.15	-13.45
631.50	-29.94
631.85	-30.85
632.20	-22.49
632.54	-20.79
632.89	-23.84
633.24	-21.92
633.59	-19.43
633.94	0.56
634.29	-15.93
634.63	-4.75
634.98	-9.60
635.33	-39.10
635.68	-15.14
636.02	-17.06
636.37	-34.12
636.72	9.04
637.07	-18.42
637.42	-21.69
637.76	-15.93
638.11	-12.88
638.46	-16.72
638.81	-17.97
639.15	-28.59
639.50	-25.08
639.85	-19.66
640.20	-19.32
640.54	-11.98
640.89	-3.28
641.24	-9.72
641.58	-9.72
641.93	-10.06
642.28	-17.74
642.63	-23.50
642.97	-21.92
643.32	1.58
643.67	-38.64
644.01	-32.32
644.36	-24.29
644.71	-27.46
645.05	-9.94
645.40	-10.28
645.75	-39.43
646.09	-23.62
646.44	-8.93
646.79	-27.23
647.13	-18.98
647.48	0.11
647.83	-2.94
648.17	-15.93
648.52	-18.08
648.86	-13.45
649.21	-16.04
649.56	-16.16
649.90	-10.51
650.25	-23.05
650.60	-9.60
650.94	-9.72
651.29	-21.92
651.63	3.73
651.98	-7.80
652.33	-18.53
652.67	-22.94
653.02	-11.41
653.36	-22.94
653.71	-5.42
654.05	-18.76
654.40	-23.95
654.74	-13.78
655.09	-12.32
655.44	-11.64
655.78	-13.56
656.13	-2.94
656.47	-9.94
656.82	-23.95
657.16	-5.31
657.51	-23.95
657.85	-21.13
658.20	-1.81
658.54	-18.19
658.89	-1.81
659.23	5.08
659.58	8.14
659.92	-9.15
660.27	-23.16
660.61	-27.80
660.96	-12.99
661.30	-0.68
661.65	-14.46
661.99	-12.32
662.33	18.42
662.68	-11.07
663.02	1.58
663.37	20.45
663.71	14.69
664.06	-12.66
664.40	-2.03
664.75	11.41
665.09	-3.62
665.43	16.95
665.78	-10.51
666.12	-4.86
666.47	10.85
666.81	3.05
667.15	0.68
667.50	24.41
667.84	-4.29
668.19	3.39
668.53	15.71
668.87	0.56
669.22	18.98
669.56	8.02
669.90	21.13
670.25	17.63
670.59	18.87
670.93	21.02
671.28	17.51
671.62	30.06
671.96	18.08
672.31	28.02
672.65	34.46
672.99	36.95
673.34	15.59
673.68	34.12
674.02	33.67
674.37	31.64
674.71	17.97
675.05	32.09
675.40	24.75
675.74	30.96
676.08	36.27
676.42	63.39
676.77	34.69
677.11	55.93
677.45	30.85
677.79	32.54
678.14	30.85
678.48	69.60
678.82	49.49
679.16	48.36
679.51	69.49
679.85	50.28
680.19	50.62
680.53	56.95
680.88	75.48
681.22	70.05
681.56	61.92
681.90	76.04
682.24	77.96
682.59	71.86
682.93	73.78
683.27	90.73
683.61	79.09
683.95	74.01
684.29	69.60
684.64	83.73
684.98	93.33
685.32	91.30
685.66	99.88
686.00	122.82
686.34	100.11
686.69	118.19
687.03	115.82
687.37	115.82
687.71	143.50
688.05	118.98
688.39	116.83
688.73	133.67
689.07	121.01
689.41	134.80
689.76	129.38
690.10	117.40
690.44	138.30
690.78	153.22
691.12	141.13
691.46	139.43
691.80	169.15
692.14	175.70
692.48	182.37
692.82	175.81
693.16	185.87
693.50	186.44
693.84	191.29
694.18	221.12
694.53	216.49
694.87	237.62
695.21	219.99
695.55	200.33
695.89	232.76
696.23	251.63
696.57	257.96
696.91	264.40
697.25	241.46
697.59	276.26
697.93	279.43
698.27	283.83
698.61	262.59
698.95	301.24
699.29	306.09
699.63	303.04
699.97	317.28
700.30	342.93
700.64	352.08
700.98	338.64
701.32	366.66
701.66	376.15
702.00	390.05
702.34	376.26
702.68	386.20
703.02	441.57
703.36	438.63
703.70	431.51
704.04	438.29
704.38	467.22
704.72	465.07
705.05	487.56
705.39	510.50
705.73	503.26
706.07	524.39
706.41	538.63
706.75	548.23
707.09	584.73
707.43	580.10
707.77	593.54
708.10	576.71
708.44	604.96
708.78	638.74
709.12	651.40
709.46	674.90
709.80	666.08
710.13	700.43
710.47	726.87
710.81	726.20
711.15	757.72
711.49	767.32
711.82	794.67
712.16	782.47
712.50	803.48
712.84	842.01
713.18	843.37
713.51	874.78
713.85	919.18
714.19	919.64
714.53	948.45
714.87	979.75
715.20	991.27
715.54	1011.27
715.88	1050.48
716.22	1059.52
716.55	1081.10
716.89	1105.28
717.23	1128.11
717.57	1152.96
717.90	1200.08
718.24	1211.72
718.58	1244.49
718.91	1260.19
719.25	1320.30
719.59	1339.17
719.93	1357.48
720.26	1391.49
720.60	1431.71
720.94	1464.26
721.27	1505.16
721.61	1527.64
721.95	1565.72
722.28	1622.22
722.62	1655.55
722.96	1674.87
723.29	1704.81
723.63	1756.34
723.97	1800.29
724.30	1857.69
724.64	1888.20
724.97	1959.84
725.31	1997.80
725.65	2053.39
725.98	2082.77
726.32	2122.66
726.66	2187.85
726.99	2209.77
727.33	2285.93
727.66	2362.08
728.00	2396.10
728.33	2489.09
728.67	2549.09
729.01	2611.34
729.34	2658.35
729.68	2729.87
730.01	2767.27
730.35	2858.91
730.68	2946.48
731.02	3015.29
731.36	3071.67
731.69	3156.08
732.03	3212.68
732.36	3301.50
732.70	3363.98
733.03	3472.11
733.37	3503.86
733.70	3629.62
734.04	3703.29
734.37	3764.31
734.71	3856.06
735.04	3941.82
735.38	4027.80
735.71	4141.81
736.05	4250.17
736.38	4316.16
736.72	4388.92
737.05	4517.40
737.38	4578.75
737.72	4667.67
738.05	4789.59
738.39	4886.65
738.72	4990.04
739.06	5081.79
739.39	5162.80
739.73	5252.52
740.06	5372.51
740.39	5474.21
740.73	5608.10
741.06	5692.28
741.40	5788.32
741.73	5930.47
742.06	6038.60
742.40	6122.55
742.73	6226.50
743.07	6370.57
743.40	6517.34
743.73	6584.35
744.07	6688.75
744.40	6840.50
744.73	6986.93
745.07	7083.66
745.40	7235.40
745.73	7308.17
746.07	7438.00
746.40	7587.82
746.73	7663.75
747.07	7830.75
747.40	7927.14
747.73	8151.54
748.07	8172.33
748.40	8357.75
748.73	8449.27
749.07	8603.73
749.40	8749.04
749.73	8923.27
750.06	8972.87
750.40	9135.80
750.73	9250.72
751.06	9457.72
751.40	9633.19
751.73	9718.28
752.06	9884.60
752.39	10036.46
752.73	10167.08
753.06	10346.62
753.39	10451.59
753.72	10527.07
754.05	10622.55
754.39	10794.41
754.72	10975.42
755.05	11164.34
755.38	11290.44
755.72	11397.67
756.05	11514.39
756.38	11665.46
756.71	11848.50
757.04	11952.23
757.37	12100.25
757.71	12219.23
758.04	12349.73
758.37	12491.54
758.70	12613.23
759.03	12781.58
759.36	12891.19
759.70	13045.53
760.03	13147.56
760.36	13319.31
760.69	13483.83
761.02	13577.27
761.35	13598.17
761.68	13789.92
762.01	13908.45
762.35	14036.58
762.68	14093.75
763.01	14288.10
763.34	14336.23
763.67	14443.91
764.00	14528.88
764.33	14578.37
764.66	14608.99
764.99	14800.74
765.32	14835.43
765.65	14956.67
765.98	15109.55
766.31	15024.69
766.65	14965.60
766.98	15051.81
767.31	15129.32
767.64	15282.08
767.97	15168.75
768.30	15129.09
768.63	15262.65
768.96	15066.16
769.29	15202.54
769.62	15155.31
769.95	15166.27
770.28	15126.49
770.61	15037.34
770.94	15086.16
771.27	15152.71
771.60	15122.77
771.93	15069.32
772.26	14957.57
772.59	14877.69
772.92	14945.48
773.24	14899.04
773.57	14856.45
773.90	14690.35
774.23	14710.91
774.56	14634.42
774.89	14596.11
775.22	14502.44
775.55	14415.21
775.88	14251.38
776.21	14162.79
776.54	14049.80
776.87	13882.57
777.19	13805.29
777.52	13809.81
777.85	13557.95
778.18	13486.31
778.51	13310.72
778.84	13301.57
779.17	13214.79
779.50	13040.67
779.82	12861.24
780.15	12725.54
780.48	12622.61
780.81	12451.99
781.14	12377.87
781.47	12262.95
781.80	12023.64
782.12	12040.81
782.45	11818.11
782.78	11760.26
783.11	11595.74
783.44	11381.17
783.76	11381.06
784.09	11053.49
784.42	10982.88
784.75	10823.78
785.08	10715.09
785.40	10576.33
785.73	10456.67
786.06	10160.86
786.39	10124.03
786.71	10033.75
787.04	9901.77
787.37	9704.04
787.70	9530.48
788.02	9392.52
788.35	9239.08
788.68	9038.75
789.00	8940.78
789.33	8712.20
789.66	8611.19
789.99	8399.78
790.31	8269.05
790.64	8218.99
790.97	7990.30
791.29	7930.86
791.62	7754.15
791.95	7588.28
792.27	7427.04
792.60	7350.09
792.93	7244.56
793.25	7074.73
793.58	6976.43
793.91	6844.79
794.23	6719.48
794.56	6589.66
794.89	6402.20
795.21	6411.81
795.54	6201.19
795.87	6145.83
796.19	5984.14
796.52	5891.26
796.84	5724.93
797.17	5625.95
797.50	5530.59
797.82	5391.38
798.15	5346.75
798.47	5178.17
798.80	5075.01
799.12	5026.42
799.45	4900.21
799.78	4764.39
800.10	4679.09
800.43	4538.52
800.75	4420.22
801.08	4356.38
801.40	4248.36
801.73	4149.72
802.05	4017.07
802.38	3948.03
802.70	3862.16
803.03	3761.03
803.35	3681.94
803.68	3586.23
804.00	3479.91
804.33	3406.13
804.65	3304.55
804.98	3219.35
805.30	3097.88
805.63	3030.20
805.95	2945.23
806.28	2888.62
806.60	2749.08
806.93	2689.53
807.25	2602.08
807.58	2569.31
807.90	2486.38
808.22	2392.03
808.55	2354.74
808.87	2303.89
809.20	2207.63
809.52	2154.97
809.85	2077.46
810.17	2030.91
810.49	1965.71
810.82	1908.42
811.14	1849.56
811.47	1772.50
811.79	1732.04
812.11	1684.70
812.44	1606.96
812.76	1564.48
813.08	1512.50
813.41	1469.79
813.73	1390.47
814.05	1394.20
814.38	1323.69
814.70	1281.55
815.02	1231.27
815.35	1211.15
815.67	1157.60
815.99	1152.29
816.32	1135.11
816.64	1042.46
816.96	1048.33
817.29	994.44
817.61	973.08
817.93	941.67
818.26	925.06
818.58	852.41
818.90	846.76
819.22	826.53
819.55	799.08
819.87	785.06
820.19	759.08
820.51	734.10
820.84	682.58
821.16	678.51
821.48	643.60
821.80	637.27
822.13	611.06
822.45	595.80
822.77	578.52
823.09	552.08
823.41	556.71
823.74	529.36
824.06	512.42
824.38	500.10
824.70	479.42
825.02	464.06
825.35	458.97
825.67	446.09
825.99	441.34
826.31	417.84
826.63	417.73
826.95	402.02
827.27	373.89
827.60	365.41
827.92	363.83
828.24	358.63
828.56	339.09
828.88	314.34
829.20	342.93
829.52	305.64
829.84	305.98
830.17	302.03
830.49	287.22
830.81	288.13
831.13	259.43
831.45	267.45
831.77	264.96
832.09	256.15
832.41	229.94
832.73	246.21
833.05	252.54
833.37	221.46
833.69	203.27
834.01	200.56
834.33	200.11
834.65	185.98
834.97	205.19
835.29	173.33
835.61	176.38
835.94	189.60
836.26	160.79
836.58	170.05
836.90	165.19
837.21	177.85
837.53	155.59
837.85	149.60
838.17	148.58
838.49	126.66
838.81	131.41
839.13	136.61
839.45	127.68
839.77	122.03
840.09	104.63
840.41	121.01
840.73	97.74
841.05	95.48
841.37	114.35
841.69	104.40
842.01	92.77
842.33	89.94
842.65	75.59
842.96	71.30
843.28	88.70
843.60	71.18
843.92	88.47
844.24	80.56
844.56	82.26
844.88	82.48
845.20	70.17
845.52	71.75
845.83	59.43
846.15	55.82
846.47	63.61
846.79	56.72
847.11	47.46
847.43	34.24
847.74	53.90
848.06	45.08
848.38	47.00
848.70	40.79
849.02	59.55
849.33	39.55
849.65	33.56
849.97	45.99
850.29	31.98
850.61	37.17
850.92	19.66
851.24	2.71
851.56	19.66
851.88	18.87
852.19	14.80
852.51	15.82
852.83	17.40
853.15	17.29
853.46	11.64
853.78	29.83
854.10	22.60
854.42	15.71
854.73	4.63
855.05	-2.71
855.37	3.62
855.68	29.26
856.00	5.54
856.32	-8.93
856.63	-17.85
856.95	4.97
857.27	-6.89
857.59	-4.07
857.90	-1.24
858.22	-4.29
858.53	1.69
858.85	4.63
859.17	9.04
859.48	3.73
859.80	9.38
860.12	-9.60
860.43	0.68
860.75	2.94
861.07	-3.28
861.38	-9.49
861.70	-11.30
862.01	-15.25
862.33	-19.89
862.65	-11.86
862.96	-3.95
863.28	-28.70
863.59	7.23
863.91	5.99
864.22	3.95
864.54	-15.82
864.86	1.69
865.17	-15.59
865.49	-1.92
865.80	-6.78
866.12	-26.67
866.43	-1.81
866.75	-5.65
867.06	-18.76
867.38	-15.14
867.69	-19.10
868.01	-34.01
868.32	-25.08
868.64	-6.10
868.95	-24.75
869.27	-8.02
869.58	-12.77
869.90	-7.57
870.21	-15.82
870.53	-27.46
870.84	-3.95
871.15	-13.90
871.47	-7.46
871.78	11.41
872.10	-15.14
872.41	-17.40
872.73	-30.51
873.04	-34.91
873.36	-16.38
873.67	-7.91
873.98	-29.83
874.30	-6.21
874.61	-20.00
874.93	-18.19
875.24	-21.47
875.55	-22.49
875.87	-15.71
876.18	-10.62
876.49	1.58
876.81	-20.00
877.12	-26.89
877.43	-19.43
877.75	-17.74
878.06	-1.58
878.37	-22.03
878.69	-12.20
879.00	-21.24
879.31	-24.52
879.63	-9.04
879.94	-11.53
880.25	-22.37
880.57	-15.93
880.88	-15.82
881.19	1.47
881.50	-31.19
881.82	-24.97
882.13	-33.56
882.44	-19.43
882.76	-38.08
883.07	-12.43
883.38	-23.16
883.69	-30.06
884.01	-24.18
884.32	-19.55
884.63	-35.82
884.94	-24.97
885.25	-35.37
885.57	-14.91
885.88	-7.01
886.19	-23.39
886.50	-14.69
886.81	-20.45
887.13	-10.73
887.44	-3.62
887.75	-9.38
888.06	-16.38
888.37	-21.13
888.69	-44.74
889.00	-32.77
889.31	-13.22
889.62	-26.44
889.93	-23.95
890.24	-7.01
890.55	-15.37
890.87	-30.51
891.18	-3.62
891.49	-20.45
891.80	-31.64
892.11	-12.54
892.42	-11.64
892.73	-12.54
893.04	-29.94
893.35	-5.99
893.66	-23.50
893.98	-55.37
894.29	-26.10
894.60	-38.08
894.91	-19.55
895.22	-23.95
895.53	-27.68
895.84	-13.90
896.15	-12.54
896.46	-16.72
896.77	-13.56
897.08	-25.42
897.39	-29.94
897.70	-17.06
898.01	-19.10
898.32	-40.00
898.63	-25.42
898.94	-12.77
899.25	-14.91
899.56	-20.68
899.87	-23.95
900.18	-13.56
900.49	-29.94
900.80	-35.03
901.11	-16.84
901.42	-27.68
901.73	-2.49
902.04	-14.24
902.35	-6.89
902.66	-46.55
902.96	-24.63
903.27	-25.42
903.58	-24.07
903.89	-20.45
904.20	-1.92
904.51	-28.47
904.82	-24.29
905.13	-52.20
905.44	-24.41
905.75	-38.76
906.05	-38.08
906.36	-20.56
906.67	-29.38
906.98	-19.77
907.29	-21.13
907.60	0.68
907.91	-19.32
908.21	-11.41
908.52	-25.31
908.83	-20.11
909.14	-6.67
909.45	-33.11
909.75	-24.41
910.06	-8.59
910.37	-27.00
910.68	-31.19
910.99	-14.69
911.29	-10.96
911.60	-19.10
911.91	-37.29
912.22	-20.90
912.52	-21.58
912.83	-13.33
913.14	-28.47
913.45	-39.43
913.75	-14.46
914.06	-28.36
914.37	-13.45
914.68	-6.33
914.98	-28.93
915.29	-25.54
915.60	-22.60
915.91	-21.92
916.21	-26.67
916.52	-32.32
916.83	-29.72
917.13	-17.06
917.44	-13.22
917.75	-18.64
918.05	-28.25
918.36	-15.03
918.67	-33.33
918.97	-18.08
919.28	-25.76
919.59	-28.36
919.89	-49.83
920.20	-24.18
920.50	-29.38
920.81	-30.62
921.12	-24.63
921.42	-25.54
921.73	-42.82
922.03	-40.34
922.34	-26.10
922.65	-21.92
922.95	-25.88
923.26	-27.34
923.56	-28.36
923.87	-34.46
924.18	-24.29
924.48	-23.28
924.79	-21.36
925.09	-12.09
925.40	-14.91
925.70	-27.00
926.01	-16.95
926.31	-25.76
926.62	-55.48
926.92	-26.89
927.23	-28.02
927.53	-24.29
927.84	-20.34
928.14	-28.81
928.45	-17.40
928.75	-8.59
929.06	-6.89
929.36	-5.99
929.67	-18.64
929.97	-40.34
930.28	-12.20
930.58	-26.10
930.89	-37.63
931.19	-24.07
931.49	-29.72
931.80	-48.70
932.10	-10.62
932.41	-31.30
932.71	-38.76
933.01	-14.35
933.32	-8.93
933.62	-12.77
933.93	-21.92
934.23	-26.10
934.53	-30.39
934.84	-20.34
935.14	-20.34
935.45	-39.32
935.75	-11.86
936.05	-32.32
936.36	-18.87
936.66	-2.60
936.96	-47.34
937.27	-22.37
937.57	-20.56
937.87	-15.93
938.18	-23.16
938.48	-7.91
938.78	-12.99
939.08	-40.79
939.39	-15.82
939.69	-10.73
939.99	-22.03
940.30	-8.14
940.60	-20.23
940.90	-23.73
941.20	-35.25
941.51	-27.91
941.81	-23.05
942.11	-19.77
942.41	-24.86
942.72	-22.03
943.02	-25.31
943.32	-27.57
943.62	-22.60
943.93	-33.67
944.23	-14.01
944.53	-16.38
944.83	-28.47
945.13	-15.93
945.44	-19.10
945.74	-11.75
946.04	-40.68
946.34	-36.16
946.64	-34.69
946.94	-15.93
947.25	-23.50
947.55	-34.58
947.85	-29.04
948.15	-26.21
948.45	-29.26
948.75	-39.43
949.05	-42.60
949.35	-17.29
949.66	-8.14
949.96	-9.38
950.26	-31.19
950.56	-14.69
950.86	-33.56
951.16	-35.37
951.46	-21.13
951.76	-5.65
952.06	-39.10
952.36	-16.72
952.66	-21.58
952.96	-21.92
953.26	-26.33
953.57	-14.24
953.87	-20.23
954.17	-37.74
954.47	-14.91
954.77	-35.48
955.07	-19.43
955.37	-17.17
955.67	-17.51
955.97	-14.80
956.27	-32.32
956.57	-35.71
956.87	-23.50
957.17	-22.37
957.47	-12.99
957.77	-10.51
958.06	-20.68
958.36	-22.82
958.66	-15.59
958.96	-24.07
959.26	-32.09
959.56	-20.45
959.86	-23.95
960.16	-22.37
960.46	-29.49
960.76	-20.23
961.06	-27.57
961.36	-38.19
961.66	-1.69
961.95	-22.15
962.25	-20.11
962.55	-27.80
962.85	5.65
963.15	-22.37
963.45	-9.27
963.75	-35.59
964.05	-15.48
964.34	-12.43
964.64	-19.21
964.94	-42.82
965.24	-32.65
965.54	-21.36
965.83	-16.50
966.13	-18.64
966.43	-25.54
966.73	-16.38
967.03	-13.78
967.32	-10.73
967.62	-11.41
967.92	-42.82
968.22	-29.49
968.52	-19.66
968.81	-52.32
969.11	-18.87
969.41	-10.28
969.71	1.58
970.00	-8.81
970.30	-1.24
970.60	-10.51
970.90	-19.32
971.19	-8.93
971.49	-43.28
971.79	-22.60
972.08	-34.01
972.38	-40.00
972.68	-35.71
972.97	-23.28
973.27	-22.37
973.57	-15.82
973.87	-20.68
974.16	-33.22
974.46	-16.27
974.75	-34.46
975.05	-20.68
975.35	-30.17
975.64	-35.25
975.94	-36.16
976.24	-16.04
976.53	-27.23
976.83	-7.68
977.13	-11.75
977.42	-0.79
977.72	-2.60
978.01	-36.61
978.31	-35.82
978.60	-30.73
978.90	-27.23
979.20	-40.34
979.49	-22.82
979.79	-48.36
980.08	-11.86
980.38	-30.85
980.67	-15.82
980.97	-32.20
981.26	-32.65
981.56	-14.80
981.86	-11.64
982.15	-29.15
982.45	-34.80
982.74	-12.66
983.04	-21.13
983.33	-20.45
983.63	-20.90
983.92	-27.68
984.21	-25.54
984.51	-27.46
984.80	-24.52
985.10	-32.32
985.39	-34.12
985.69	-17.74
985.98	-46.78
986.28	-41.35
986.57	-21.81
986.87	-9.60
987.16	-47.34
987.45	-14.01
987.75	-29.04
988.04	-11.75
988.34	-10.06
988.63	-20.23
988.92	-40.11
989.22	-15.25
989.51	-24.52
989.80	-33.56
990.10	-8.02
990.39	-37.51
990.69	-25.31
990.98	-35.03
991.27	-23.05
991.57	-8.81
991.86	-14.35
992.15	-7.91
992.45	-31.98
992.74	-23.39
993.03	-31.52
993.33	-21.36
993.62	-9.38
993.91	-21.13
994.20	-18.42
994.50	-31.64
994.79	-14.80
995.08	-30.51
995.37	-9.83
995.67	-15.03
995.96	-23.50
996.25	-38.64
996.54	-3.39
996.84	-20.79
997.13	-26.89
997.42	-27.12
997.71	-36.04
998.01	-18.08
998.30	-12.66
998.59	-7.01
998.88	-28.47
999.17	-25.88
999.47	-16.61
999.76	-26.78
1000.05	-20.90
1000.34	-22.15
1000.63	-36.61
1000.92	-9.04
1001.22	-18.64
1001.51	-31.86
1001.80	-15.59
1002.09	-19.21
1002.38	-12.09
1002.67	-26.44
1002.96	-34.46
1003.26	-13.78
1003.55	-35.14
1003.84	-10.96
1004.13	-13.90
1004.42	-22.71
1004.71	-50.06
1005.00	-20.68
1005.29	-23.95
1005.58	-18.98
1005.87	-16.38
1006.16	-28.59
1006.45	-17.63
1006.74	-25.08
1007.04	-8.36
1007.33	-0.23
1007.62	-40.00
1007.91	-16.50
1008.20	-27.68
1008.49	-44.18
1008.78	-35.93
1009.07	-24.29
1009.36	-15.48
1009.65	-25.31
1009.94	-28.25
1010.23	-18.08
1010.52	-31.86
1010.81	-25.65
1011.10	-17.06
1011.38	-23.39
1011.67	-35.93
1011.96	-15.25
1012.25	-29.15
1012.54	-28.93
1012.83	-22.03
1013.12	-31.19
1013.41	-38.76
1013.70	-28.70
1013.99	-39.32
1014.28	-18.30
1014.57	-35.25
1014.86	-22.60
1015.14	-22.37
1015.43	-25.88
1015.72	-39.77
1016.01	-25.54
1016.30	-35.25
1016.59	-34.12
1016.88	-18.53
1017.16	-28.25
1017.45	-28.13
1017.74	-36.72
1018.03	-30.06
1018.32	-20.79
1018.61	-25.42
1018.89	-3.39
1019.18	-28.81
1019.47	-20.11
1019.76	-32.43
1020.05	-16.27
1020.33	-15.82
1020.62	-30.73
1020.91	-16.61
1021.20	-18.08
1021.48	-20.56
1021.77	-20.90
1022.06	-16.27
1022.35	-7.46
1022.63	-20.34
1022.92	-24.18
1023.21	-17.29
1023.50	-29.38
1023.78	-36.72
1024.07	-17.74
1024.36	-17.97
1024.64	-22.71
1024.93	-16.95
1025.22	-38.08
1025.50	-25.65
1025.79	-23.62
1026.08	-24.97
1026.36	-25.54
1026.65	-34.01
1026.94	-19.21
1027.22	-38.19
1027.51	-13.67
1027.80	-13.56
1028.08	-1.47
1028.37	-36.27
1028.66	-25.31
1028.94	-33.11
>>>>>End Processed Spectral Data<<<<<
