SpectraSuite Data File
++++++++++++++++++++++++++++++++++++
Date: Thu Jun 15 11:36:32 BST 2017
User: Eng0000912
Dark Spectrum Present: Yes
Reference Spectrum Present: No
Number of Sampled Component Spectra: 1
Spectrometers: USB2+H04851
Integration Time (usec): 100000 (USB2+H04851)
Spectra Averaged: 20 (USB2+H04851)
Boxcar Smoothing: 0 (USB2+H04851)
Correct for Electrical Dark: No (USB2+H04851)
Strobe/Lamp Enabled: No (USB2+H04851)
Correct for Detector Non-linearity: No (USB2+H04851)
Correct for Stray Light: No (USB2+H04851)
Number of Pixels in Processed Spectrum: 2048
>>>>>Begin Processed Spectral Data<<<<<
340.07	-14.69
340.45	-14.69
340.82	-14.69
341.20	-14.69
341.58	-19.43
341.96	-2.15
342.34	-13.33
342.72	1.24
343.10	-18.42
343.48	-12.09
343.85	-42.37
344.23	-17.29
344.61	10.06
344.99	-4.75
345.37	-1.47
345.75	-23.16
346.13	-24.75
346.50	-18.87
346.88	10.17
347.26	-20.23
347.64	-14.46
348.02	-18.64
348.40	-16.61
348.77	-7.80
349.15	-12.88
349.53	-21.02
349.91	-12.54
350.29	-12.32
350.66	-9.49
351.04	-29.49
351.42	-4.75
351.80	-23.28
352.18	-15.82
352.55	-4.07
352.93	-11.41
353.31	-6.10
353.69	2.71
354.07	-16.84
354.44	-14.01
354.82	-16.95
355.20	-23.73
355.58	-8.25
355.95	-26.89
356.33	-10.28
356.71	-21.02
357.09	-29.72
357.46	-34.35
357.84	-4.07
358.22	-8.70
358.60	-25.31
358.97	-10.62
359.35	-15.82
359.73	-12.32
360.10	-7.80
360.48	-8.02
360.86	-17.29
361.24	-16.84
361.61	-8.93
361.99	-14.12
362.37	-27.68
362.74	-22.82
363.12	-18.87
363.50	-25.65
363.87	-5.99
364.25	-4.75
364.63	-32.99
365.01	-8.93
365.38	-26.44
365.76	-12.88
366.14	-13.67
366.51	-24.07
366.89	-24.41
367.27	-17.29
367.64	19.77
368.02	-14.35
368.39	-1.58
368.77	-32.43
369.15	-32.54
369.52	3.84
369.90	-16.50
370.28	-26.33
370.65	-7.01
371.03	-14.35
371.40	-29.83
371.78	-11.07
372.16	-21.81
372.53	-8.25
372.91	-2.03
373.28	-1.92
373.66	-12.66
374.04	-25.20
374.41	-8.47
374.79	-11.19
375.16	-26.55
375.54	-23.39
375.92	-16.16
376.29	-26.33
376.67	-21.58
377.04	-17.63
377.42	-9.38
377.79	-22.03
378.17	-22.03
378.55	-21.47
378.92	-22.71
379.30	-24.41
379.67	-38.19
380.05	-4.07
380.42	-2.15
380.80	-17.40
381.17	-15.03
381.55	-19.43
381.92	-16.95
382.30	-16.84
382.67	-20.11
383.05	-21.69
383.42	-21.81
383.80	-13.90
384.17	-12.20
384.55	-18.19
384.92	-18.19
385.30	-30.06
385.67	-24.63
386.05	-11.53
386.42	-18.30
386.80	-9.38
387.17	-10.06
387.55	-31.86
387.92	-2.94
388.30	-10.17
388.67	-13.56
389.04	-28.13
389.42	-21.81
389.79	-36.27
390.17	-11.30
390.54	-21.02
390.92	-29.04
391.29	-25.54
391.67	-11.19
392.04	-6.10
392.41	0.56
392.79	-36.50
393.16	-1.02
393.54	-15.48
393.91	-20.45
394.28	0.79
394.66	-14.46
395.03	-14.80
395.41	-14.80
395.78	-4.18
396.15	-19.10
396.53	-28.93
396.90	-13.56
397.28	-17.51
397.65	-14.46
398.02	-3.73
398.40	-13.78
398.77	-12.32
399.14	-30.85
399.52	-27.00
399.89	-11.19
400.26	-20.56
400.64	-7.12
401.01	-18.64
401.38	-1.58
401.76	-2.26
402.13	-7.23
402.50	0.90
402.88	-14.35
403.25	-10.73
403.62	-17.06
404.00	0.45
404.37	-18.53
404.74	-11.98
405.12	-23.50
405.49	-15.59
405.86	-17.97
406.23	-19.55
406.61	-12.32
406.98	-18.30
407.35	-29.49
407.73	-24.86
408.10	11.86
408.47	-5.99
408.84	-5.42
409.22	-12.77
409.59	6.67
409.96	-16.50
410.33	-20.00
410.71	-21.02
411.08	-1.02
411.45	-3.84
411.82	-19.55
412.20	-11.53
412.57	-8.25
412.94	-1.24
413.31	-26.10
413.68	-29.83
414.06	-24.75
414.43	-21.36
414.80	-28.25
415.17	3.62
415.55	-17.29
415.92	-6.33
416.29	-17.40
416.66	-10.62
417.03	-15.59
417.40	0.23
417.78	-8.93
418.15	-6.67
418.52	-13.33
418.89	-17.85
419.26	-8.81
419.63	-6.44
420.01	-14.80
420.38	-27.00
420.75	-21.02
421.12	-6.67
421.49	-22.82
421.86	3.73
422.23	-13.33
422.61	9.60
422.98	-11.30
423.35	-8.47
423.72	-13.67
424.09	-13.45
424.46	-1.81
424.83	-37.29
425.20	-10.51
425.58	-6.21
425.95	-16.95
426.32	-0.34
426.69	-8.02
427.06	-14.69
427.43	-3.16
427.80	-16.27
428.17	-18.76
428.54	-8.70
428.91	-10.40
429.28	-2.71
429.65	-32.88
430.02	-12.43
430.40	-6.55
430.77	-20.00
431.14	-29.15
431.51	-15.03
431.88	-7.80
432.25	-10.85
432.62	-9.94
432.99	-11.41
433.36	-24.52
433.73	-15.37
434.10	-1.02
434.47	-22.49
434.84	-15.82
435.21	-4.18
435.58	-1.47
435.95	-8.93
436.32	-10.28
436.69	-28.70
437.06	-5.08
437.43	-10.28
437.80	-18.19
438.17	-22.03
438.54	-3.50
438.91	-9.94
439.28	-1.69
439.65	-25.08
440.02	-18.42
440.39	-18.42
440.76	-6.78
441.13	-4.07
441.49	-17.06
441.86	-20.34
442.23	-5.31
442.60	-3.62
442.97	-8.47
443.34	-24.29
443.71	-18.30
444.08	-32.99
444.45	10.51
444.82	-10.17
445.19	-18.08
445.56	-24.86
445.93	-11.98
446.29	-7.34
446.66	-25.88
447.03	-28.25
447.40	1.36
447.77	0.23
448.14	-10.73
448.51	-21.47
448.88	1.02
449.24	-5.65
449.61	-28.47
449.98	-18.19
450.35	-14.80
450.72	-10.62
451.09	-2.03
451.46	-3.84
451.82	2.60
452.19	-11.98
452.56	-27.80
452.93	4.63
453.30	-24.63
453.67	5.65
454.03	-26.10
454.40	-13.56
454.77	4.29
455.14	-27.57
455.51	-27.00
455.87	-26.55
456.24	2.49
456.61	-12.54
456.98	-20.45
457.35	-11.19
457.71	-12.32
458.08	-14.35
458.45	3.95
458.82	0.79
459.19	-22.49
459.55	-1.13
459.92	-14.24
460.29	-11.86
460.66	-13.78
461.02	-12.20
461.39	-9.15
461.76	-13.22
462.13	-28.02
462.49	5.42
462.86	-14.12
463.23	-23.95
463.59	-25.99
463.96	-12.66
464.33	7.68
464.70	-12.66
465.06	-3.84
465.43	-20.45
465.80	-18.42
466.16	-29.26
466.53	-24.29
466.90	-0.68
467.26	-28.36
467.63	-12.54
468.00	-24.41
468.36	-9.83
468.73	-2.71
469.10	-11.86
469.46	7.68
469.83	-21.81
470.20	-24.18
470.56	-28.70
470.93	-35.71
471.30	-20.79
471.66	-21.58
472.03	2.03
472.40	-11.19
472.76	-13.78
473.13	-23.62
473.50	-20.11
473.86	-3.62
474.23	-18.30
474.59	-13.33
474.96	-42.94
475.33	-19.55
475.69	-11.75
476.06	-23.62
476.42	-14.91
476.79	-5.42
477.16	-8.70
477.52	-11.41
477.89	-14.80
478.25	-4.63
478.62	-22.60
478.98	-34.35
479.35	-0.23
479.72	-21.69
480.08	-13.22
480.45	-19.55
480.81	-14.46
481.18	-15.48
481.54	-30.96
481.91	-15.25
482.27	-15.59
482.64	-4.41
483.00	-5.54
483.37	-7.46
483.73	-35.03
484.10	-16.04
484.46	-12.09
484.83	-11.41
485.19	-14.24
485.56	-17.29
485.92	-15.71
486.29	-8.59
486.65	-10.51
487.02	3.39
487.38	-11.41
487.75	-14.91
488.11	-16.38
488.48	-7.57
488.84	-23.28
489.21	-4.86
489.57	-36.04
489.94	-31.64
490.30	-2.94
490.66	-23.84
491.03	-15.82
491.39	-12.43
491.76	-20.68
492.12	-23.28
492.49	-19.43
492.85	-18.08
493.21	-11.41
493.58	8.47
493.94	13.45
494.31	-17.97
494.67	-26.89
495.03	-12.20
495.40	-15.03
495.76	-22.03
496.13	-14.01
496.49	0.34
496.85	-7.23
497.22	-11.07
497.58	-7.46
497.94	-0.34
498.31	11.86
498.67	-12.32
499.04	-7.80
499.40	-3.84
499.76	-11.53
500.13	-7.12
500.49	8.25
500.85	-18.64
501.22	-6.67
501.58	-14.80
501.94	1.36
502.31	2.26
502.67	-14.46
503.03	-22.37
503.40	-11.41
503.76	-14.24
504.12	-6.55
504.48	-6.44
504.85	-7.80
505.21	-21.36
505.57	-11.86
505.94	-4.41
506.30	-6.55
506.66	-10.73
507.02	-26.10
507.39	-12.54
507.75	-26.33
508.11	-21.36
508.47	-20.11
508.84	-6.89
509.20	-19.21
509.56	-5.20
509.92	-22.60
510.29	-8.59
510.65	-20.56
511.01	-12.66
511.37	-28.25
511.74	-8.93
512.10	-13.45
512.46	-4.52
512.82	6.21
513.18	-11.41
513.55	-18.87
513.91	0.90
514.27	-20.56
514.63	-11.07
514.99	-13.45
515.35	-11.19
515.72	-4.18
516.08	-15.25
516.44	-34.24
516.80	-5.76
517.16	-13.78
517.52	-4.41
517.89	6.21
518.25	-27.12
518.61	-26.10
518.97	-9.94
519.33	-17.29
519.69	-4.29
520.05	-17.74
520.42	-14.80
520.78	-9.94
521.14	-29.04
521.50	-21.13
521.86	-26.10
522.22	3.84
522.58	-21.81
522.94	-25.76
523.30	-8.59
523.67	-3.05
524.03	-24.86
524.39	-12.43
524.75	-12.32
525.11	-9.83
525.47	-5.42
525.83	-6.55
526.19	-9.38
526.55	10.17
526.91	-12.32
527.27	-12.66
527.63	-8.14
527.99	-16.72
528.35	-12.09
528.71	-9.38
529.07	-8.59
529.43	-3.28
529.79	-10.85
530.15	-8.93
530.51	-27.46
530.87	-4.75
531.23	-8.36
531.59	1.36
531.95	-21.47
532.31	-26.44
532.67	-44.07
533.03	-27.57
533.39	-14.69
533.75	-18.64
534.11	-28.47
534.47	2.15
534.83	0.23
535.19	12.99
535.55	-5.54
535.91	-10.51
536.27	-21.02
536.63	-27.00
536.99	-9.27
537.35	-2.37
537.71	-0.45
538.07	-12.54
538.43	-11.07
538.79	-25.76
539.15	-18.64
539.51	-30.96
539.86	2.37
540.22	-15.25
540.58	-23.16
540.94	-18.53
541.30	-9.94
541.66	-10.17
542.02	0.45
542.38	-22.71
542.74	-13.67
543.09	-4.29
543.45	-8.02
543.81	-20.34
544.17	-13.11
544.53	-19.55
544.89	-10.62
545.25	-1.47
545.60	-12.88
545.96	-41.13
546.32	-14.35
546.68	-17.06
547.04	-11.86
547.40	-9.27
547.75	-14.91
548.11	-28.02
548.47	-11.86
548.83	-11.41
549.19	-18.08
549.55	-4.63
549.90	-16.50
550.26	-9.04
550.62	-9.04
550.98	-17.40
551.34	-27.80
551.69	-5.42
552.05	-22.71
552.41	-21.58
552.77	-18.76
553.12	-23.16
553.48	-9.15
553.84	-10.96
554.20	-13.33
554.55	-27.23
554.91	-12.77
555.27	-29.49
555.63	-5.99
555.98	-4.41
556.34	-13.45
556.70	5.65
557.05	-7.23
557.41	-17.51
557.77	-25.08
558.13	4.07
558.48	-11.98
558.84	-34.12
559.20	-4.52
559.55	-16.16
559.91	-4.07
560.27	-36.16
560.62	-8.70
560.98	-11.98
561.34	-20.23
561.69	2.60
562.05	-22.37
562.41	-12.32
562.76	1.02
563.12	-13.90
563.48	4.18
563.83	-16.38
564.19	-6.10
564.55	0.11
564.90	3.05
565.26	-27.23
565.62	0.00
565.97	-9.49
566.33	0.45
566.68	-5.42
567.04	2.03
567.40	-2.49
567.75	-14.35
568.11	-19.21
568.46	-7.12
568.82	11.30
569.18	-0.90
569.53	4.07
569.89	-4.75
570.24	10.62
570.60	-4.18
570.95	3.73
571.31	0.68
571.66	23.95
572.02	23.39
572.38	33.67
572.73	59.21
573.09	35.93
573.44	59.09
573.80	56.16
574.15	22.94
574.51	30.06
574.86	47.34
575.22	57.17
575.57	55.82
575.93	34.24
576.28	39.77
576.64	50.85
576.99	47.57
577.35	34.01
577.70	36.16
578.06	38.87
578.41	49.94
578.77	25.99
579.12	22.71
579.48	34.69
579.83	30.06
580.18	16.38
580.54	24.75
580.89	17.74
581.25	15.59
581.60	24.63
581.96	-11.98
582.31	-6.33
582.67	3.05
583.02	4.86
583.37	-9.38
583.73	-19.10
584.08	-8.02
584.44	-7.91
584.79	-1.58
585.14	-16.16
585.50	-7.68
585.85	-28.81
586.21	-19.10
586.56	-11.53
586.91	-19.32
587.27	-13.33
587.62	-11.30
587.97	-1.36
588.33	-14.58
588.68	-12.99
589.03	2.03
589.39	-14.91
589.74	1.36
590.09	-3.73
590.45	-12.88
590.80	-2.71
591.15	-4.18
591.51	-25.99
591.86	6.33
592.21	-5.65
592.57	-11.53
592.92	-2.94
593.27	5.99
593.63	-20.68
593.98	-17.97
594.33	-13.67
594.69	-22.03
595.04	-11.86
595.39	-0.79
595.74	-2.03
596.10	-2.26
596.45	-10.17
596.80	-36.50
597.15	-18.08
597.51	7.46
597.86	-3.95
598.21	-4.86
598.56	3.39
598.92	-19.89
599.27	-21.02
599.62	2.94
599.97	-24.86
600.32	8.70
600.68	-3.62
601.03	3.84
601.38	-10.85
601.73	3.95
602.09	-30.73
602.44	0.68
602.79	-24.86
603.14	-18.19
603.49	5.20
603.84	-19.43
604.20	-12.54
604.55	-6.89
604.90	-1.92
605.25	-7.46
605.60	-8.93
605.95	-17.74
606.31	-22.49
606.66	-7.68
607.01	7.01
607.36	-20.34
607.71	-7.80
608.06	-10.06
608.41	-32.65
608.76	-17.97
609.12	-23.16
609.47	-4.63
609.82	-8.25
610.17	-8.02
610.52	-17.17
610.87	6.21
611.22	-8.14
611.57	-6.67
611.92	-22.60
612.27	-14.46
612.62	-14.80
612.98	-10.28
613.33	-23.28
613.68	4.63
614.03	-10.51
614.38	-0.90
614.73	-19.21
615.08	-11.30
615.43	-6.78
615.78	-25.08
616.13	-24.75
616.48	-11.41
616.83	-16.27
617.18	-11.86
617.53	-7.57
617.88	-15.25
618.23	-8.14
618.58	-2.49
618.93	-10.62
619.28	-0.56
619.63	-4.97
619.98	-17.74
620.33	-14.46
620.68	-2.15
621.03	-3.50
621.38	1.24
621.73	-12.20
622.08	-3.50
622.43	-14.01
622.78	-2.15
623.13	-27.80
623.48	1.69
623.82	-12.54
624.17	-16.84
624.52	-27.80
624.87	0.79
625.22	-13.56
625.57	-16.95
625.92	-20.00
626.27	-17.51
626.62	0.90
626.97	-13.22
627.32	-19.21
627.66	-15.82
628.01	0.68
628.36	-10.51
628.71	-26.33
629.06	-13.78
629.41	-16.50
629.76	-17.29
630.11	-9.04
630.45	-8.14
630.80	-11.53
631.15	7.91
631.50	-10.85
631.85	-25.76
632.20	1.02
632.54	-6.10
632.89	-17.97
633.24	-21.92
633.59	-8.59
633.94	1.92
634.29	-12.99
634.63	-1.58
634.98	5.65
635.33	-20.56
635.68	-14.01
636.02	-15.25
636.37	-41.02
636.72	-4.41
637.07	-21.58
637.42	-23.50
637.76	-16.95
638.11	-26.21
638.46	-18.53
638.81	-7.23
639.15	-15.25
639.50	-9.60
639.85	-5.20
640.20	-2.94
640.54	-15.93
640.89	5.76
641.24	-5.88
641.58	11.64
641.93	0.11
642.28	2.03
642.63	-8.93
642.97	-12.09
643.32	1.36
643.67	-4.97
644.01	-19.77
644.36	-21.13
644.71	-18.30
645.05	8.70
645.40	3.95
645.75	-18.19
646.09	-20.11
646.44	2.60
646.79	-10.51
647.13	-15.59
647.48	-5.20
647.83	5.76
648.17	-3.50
648.52	-7.34
648.86	-8.59
649.21	-19.66
649.56	3.39
649.90	-5.76
650.25	-13.90
650.60	-7.34
650.94	-7.57
651.29	-6.21
651.63	5.88
651.98	-11.07
652.33	-21.69
652.67	-14.80
653.02	-14.46
653.36	-6.33
653.71	-1.69
654.05	-1.58
654.40	-11.19
654.74	-19.55
655.09	5.76
655.44	-1.47
655.78	-19.77
656.13	11.41
656.47	-5.31
656.82	2.15
657.16	3.84
657.51	-9.38
657.85	-17.63
658.20	1.02
658.54	-4.86
658.89	-8.47
659.23	-9.49
659.58	22.49
659.92	-4.52
660.27	-21.69
660.61	-18.64
660.96	-10.85
661.30	7.80
661.65	-4.97
661.99	-16.84
662.33	12.09
662.68	-0.23
663.02	1.69
663.37	25.88
663.71	18.19
664.06	10.40
664.40	6.44
664.75	11.41
665.09	3.62
665.43	18.98
665.78	4.75
666.12	1.69
666.47	3.16
666.81	0.23
667.15	8.02
667.50	12.99
667.84	10.73
668.19	-0.34
668.53	18.42
668.87	-8.93
669.22	24.75
669.56	13.78
669.90	11.53
670.25	14.35
670.59	11.64
670.93	6.78
671.28	12.43
671.62	17.17
671.96	15.25
672.31	27.23
672.65	22.15
672.99	34.91
673.34	16.84
673.68	-4.07
674.02	27.68
674.37	32.77
674.71	20.79
675.05	22.49
675.40	28.59
675.74	15.93
676.08	21.02
676.42	49.60
676.77	22.82
677.11	40.22
677.45	47.91
677.79	55.25
678.14	22.71
678.48	51.64
678.82	54.91
679.16	35.71
679.51	54.35
679.85	49.38
680.19	52.77
680.53	53.78
680.88	65.42
681.22	51.98
681.56	66.78
681.90	69.04
682.24	70.51
682.59	68.13
682.93	66.10
683.27	62.94
683.61	84.29
683.95	43.73
684.29	58.64
684.64	77.74
684.98	85.20
685.32	67.79
685.66	84.86
686.00	97.96
686.34	77.96
686.69	98.64
687.03	75.82
687.37	97.85
687.71	105.65
688.05	112.20
688.39	94.01
688.73	115.14
689.07	92.43
689.41	105.19
689.76	111.30
690.10	110.05
690.44	126.32
690.78	114.91
691.12	123.95
691.46	116.38
691.80	139.66
692.14	130.51
692.48	160.67
692.82	144.52
693.16	174.01
693.50	156.72
693.84	160.22
694.18	168.70
694.53	176.49
694.87	180.56
695.21	174.57
695.55	174.80
695.89	199.43
696.23	206.77
696.57	210.73
696.91	220.90
697.25	199.99
697.59	214.46
697.93	233.78
698.27	217.96
698.61	223.84
698.95	240.67
699.29	251.97
699.63	236.94
699.97	256.38
700.30	270.28
700.64	273.55
700.98	275.81
701.32	300.44
701.66	292.53
702.00	298.07
702.34	289.37
702.68	317.96
703.02	334.91
703.36	365.41
703.70	349.26
704.04	332.99
704.38	378.18
704.72	377.96
705.05	394.00
705.39	395.13
705.73	395.02
706.07	406.66
706.41	419.09
706.75	426.09
707.09	471.51
707.43	452.98
707.77	461.23
708.10	470.95
708.44	495.81
708.78	496.94
709.12	512.08
709.46	522.70
709.80	534.79
710.13	571.85
710.47	567.22
710.81	563.94
711.15	579.65
711.49	604.50
711.82	630.83
712.16	626.76
712.50	651.85
712.84	656.14
713.18	669.13
713.51	698.51
713.85	700.09
714.19	707.78
714.53	748.34
714.87	765.18
715.20	772.18
715.54	769.13
715.88	813.99
716.22	831.39
716.55	860.66
716.89	869.58
717.23	916.13
717.57	904.72
717.90	929.47
718.24	952.52
718.58	956.70
718.91	979.18
719.25	1031.39
719.59	1036.02
719.93	1066.07
720.26	1092.06
720.60	1125.85
720.94	1158.73
721.27	1218.95
721.61	1206.30
721.95	1227.43
722.28	1241.21
722.62	1300.98
722.96	1342.34
723.29	1350.13
723.63	1372.39
723.97	1397.82
724.30	1429.57
724.64	1473.07
724.97	1548.89
725.31	1551.94
725.65	1593.97
725.98	1635.66
726.32	1672.95
726.66	1717.58
726.99	1733.97
727.33	1798.03
727.66	1853.51
728.00	1891.59
728.33	1963.11
728.67	2021.53
729.01	2045.93
729.34	2086.84
729.68	2164.35
730.01	2168.87
730.35	2246.83
730.68	2284.69
731.02	2314.97
731.36	2405.13
731.69	2475.30
732.03	2518.80
732.36	2578.01
732.70	2634.85
733.03	2702.41
733.37	2746.71
733.70	2848.74
734.04	2893.94
734.37	2971.11
734.71	2987.94
735.04	3116.42
735.38	3165.68
735.71	3234.27
736.05	3321.38
736.38	3376.41
736.72	3427.25
737.05	3509.51
737.38	3619.00
737.72	3635.27
738.05	3740.24
738.39	3826.68
738.72	3890.18
739.06	3952.21
739.39	4042.15
739.73	4100.91
740.06	4183.28
740.39	4255.93
740.73	4389.04
741.06	4462.71
741.40	4528.92
741.73	4603.95
742.06	4704.62
742.40	4795.69
742.73	4846.99
743.07	4973.88
743.40	5041.00
743.73	5153.76
744.07	5238.85
744.40	5312.97
744.73	5407.54
745.07	5507.20
745.40	5628.78
745.73	5702.90
746.07	5806.63
746.40	5907.98
746.73	6001.65
747.07	6089.44
747.40	6159.73
747.73	6255.65
748.07	6342.77
748.40	6517.00
748.73	6583.44
749.07	6718.81
749.40	6817.56
749.73	6924.11
750.06	6974.84
750.40	7102.98
750.73	7214.16
751.06	7344.89
751.40	7431.10
751.73	7563.87
752.06	7669.18
752.39	7748.27
752.73	7848.38
753.06	8010.86
753.39	8122.39
753.72	8178.32
754.05	8254.70
754.39	8402.83
754.72	8502.26
755.05	8662.37
755.38	8728.25
755.72	8822.59
756.05	8898.07
756.38	9071.63
756.71	9126.09
757.04	9245.41
757.37	9342.92
757.71	9425.18
758.04	9451.39
758.37	9605.62
758.70	9688.45
759.03	9835.45
759.36	9920.98
759.70	10024.60
760.03	10144.25
760.36	10264.59
760.69	10355.32
761.02	10418.14
761.35	10470.80
761.68	10603.68
762.01	10720.17
762.35	10800.17
762.68	10841.30
763.01	10987.06
763.34	11065.02
763.67	11087.62
764.00	11166.71
764.33	11180.50
764.66	11241.51
764.99	11291.91
765.32	11361.96
765.65	11470.32
765.98	11585.57
766.31	11502.41
766.65	11515.97
766.98	11513.48
767.31	11602.97
767.64	11681.61
767.97	11609.07
768.30	11618.23
768.63	11720.14
768.96	11578.68
769.29	11627.60
769.62	11554.84
769.95	11638.79
770.28	11568.06
770.61	11475.74
770.94	11566.93
771.27	11559.24
771.60	11535.97
771.93	11490.21
772.26	11418.23
772.59	11384.67
772.92	11443.09
773.24	11385.35
773.57	11373.03
773.90	11243.32
774.23	11256.88
774.56	11237.11
774.89	11162.87
775.22	11022.42
775.55	11023.66
775.88	10892.03
776.21	10843.78
776.54	10688.65
776.87	10640.06
777.19	10554.75
777.52	10564.24
777.85	10443.34
778.18	10321.99
778.51	10174.31
778.84	10172.50
779.17	10098.04
779.50	10028.89
779.82	9838.39
780.15	9756.01
780.48	9630.93
780.81	9513.87
781.14	9470.49
781.47	9420.20
781.80	9221.11
782.12	9181.45
782.45	9048.46
782.78	9038.75
783.11	8881.57
783.44	8752.09
783.76	8702.71
784.09	8547.91
784.42	8447.01
784.75	8322.38
785.08	8260.57
785.40	8103.29
785.73	8040.13
786.06	7853.69
786.39	7858.66
786.71	7732.23
787.04	7661.04
787.37	7539.24
787.70	7334.27
788.02	7266.70
788.35	7109.64
788.68	7020.72
789.00	6930.55
789.33	6764.91
789.66	6694.29
789.99	6552.60
790.31	6412.26
790.64	6346.39
790.97	6180.52
791.29	6143.12
791.62	6017.69
791.95	5913.63
792.27	5797.14
792.60	5742.56
792.93	5630.70
793.25	5535.00
793.58	5422.57
793.91	5347.09
794.23	5205.40
794.56	5121.67
794.89	5001.45
795.21	5001.56
795.54	4855.24
795.87	4781.23
796.19	4665.64
796.52	4595.70
796.84	4491.29
797.17	4416.38
797.50	4318.42
797.82	4218.87
798.15	4180.79
798.47	4095.03
798.80	3966.11
799.12	3949.39
799.45	3811.31
799.78	3729.73
800.10	3626.57
800.43	3567.93
800.75	3488.95
801.08	3430.64
801.40	3357.43
801.73	3264.43
802.05	3148.84
802.38	3087.72
802.70	3023.88
803.03	2960.04
803.35	2903.31
803.68	2834.61
804.00	2751.91
804.33	2682.19
804.65	2600.84
804.98	2549.42
805.30	2435.64
805.63	2400.39
805.95	2335.08
806.28	2235.08
806.60	2149.66
806.93	2129.10
807.25	2051.47
807.58	2022.66
807.90	1968.54
808.22	1895.54
808.55	1861.76
808.87	1810.12
809.20	1769.90
809.52	1708.99
809.85	1648.54
810.17	1598.49
810.49	1549.79
810.82	1515.21
811.14	1475.10
811.47	1423.69
811.79	1361.89
812.11	1316.80
812.44	1284.37
812.76	1218.50
813.08	1184.38
813.41	1147.65
813.73	1123.59
814.05	1087.54
814.38	1044.72
814.70	1008.34
815.02	983.02
815.35	971.84
815.67	932.18
815.99	913.08
816.32	877.49
816.64	841.33
816.96	814.55
817.29	781.79
817.61	777.27
817.93	761.90
818.26	739.98
818.58	675.35
818.90	679.98
819.22	656.25
819.55	655.24
819.87	613.43
820.19	615.58
820.51	582.58
820.84	558.18
821.16	539.08
821.48	514.00
821.80	507.11
822.13	480.44
822.45	467.78
822.77	490.04
823.09	463.26
823.41	450.04
823.74	427.56
824.06	401.46
824.38	390.95
824.70	375.36
825.02	368.92
825.35	372.31
825.67	375.36
825.99	321.69
826.31	354.68
826.63	323.04
826.95	325.98
827.27	306.32
827.60	312.87
827.92	279.99
828.24	281.24
828.56	278.07
828.88	261.58
829.20	258.30
829.52	247.68
829.84	244.97
830.17	251.86
830.49	223.61
830.81	223.72
831.13	193.44
831.45	209.71
831.77	201.12
832.09	185.08
832.41	189.60
832.73	190.39
833.05	200.22
833.37	189.60
833.69	175.14
834.01	187.34
834.33	148.24
834.65	145.19
834.97	154.80
835.29	140.00
835.61	141.80
835.94	152.20
836.26	138.53
836.58	140.34
836.90	115.93
837.21	142.26
837.53	131.41
837.85	116.04
838.17	127.79
838.49	94.46
838.81	111.52
839.13	105.99
839.45	114.35
839.77	100.79
840.09	97.29
840.41	84.18
840.73	78.53
841.05	73.67
841.37	94.57
841.69	93.78
842.01	74.46
842.33	83.27
842.65	50.51
842.96	61.58
843.28	88.02
843.60	69.38
843.92	43.50
844.24	76.04
844.56	64.07
844.88	56.38
845.20	59.66
845.52	58.53
845.83	51.41
846.15	41.47
846.47	58.08
846.79	45.08
847.11	43.95
847.43	39.77
847.74	50.51
848.06	25.54
848.38	47.46
848.70	42.60
849.02	58.42
849.33	18.08
849.65	38.19
849.97	41.69
850.29	32.43
850.61	20.11
850.92	7.12
851.24	16.27
851.56	-0.45
851.88	24.18
852.19	24.07
852.51	15.93
852.83	18.53
853.15	4.86
853.46	10.28
853.78	26.55
854.10	5.54
854.42	16.27
854.73	16.27
855.05	3.95
855.37	12.77
855.68	14.91
856.00	-1.13
856.32	2.37
856.63	-14.69
856.95	8.25
857.27	18.87
857.59	4.86
857.90	8.14
858.22	-5.99
858.53	-5.08
858.85	19.32
859.17	17.29
859.48	-3.95
859.80	-1.69
860.12	-7.68
860.43	12.99
860.75	-0.68
861.07	11.19
861.38	-15.25
861.70	-3.84
862.01	-20.45
862.33	-24.07
862.65	6.33
862.96	12.66
863.28	-24.29
863.59	2.71
863.91	-1.58
864.22	-9.49
864.54	-17.63
864.86	2.03
865.17	-2.49
865.49	-3.84
865.80	-10.17
866.12	-22.37
866.43	-7.01
866.75	-15.93
867.06	-7.68
867.38	-0.23
867.69	-19.66
868.01	-16.27
868.32	-25.31
868.64	-11.98
868.95	-0.34
869.27	3.62
869.58	-2.49
869.90	-1.69
870.21	-6.78
870.53	-3.16
870.84	1.58
871.15	-2.71
871.47	-2.60
871.78	5.20
872.10	-6.89
872.41	-3.95
872.73	-13.33
873.04	-16.38
873.36	-25.76
873.67	-14.12
873.98	3.39
874.30	12.77
874.61	-7.91
874.93	-19.55
875.24	-4.41
875.55	-15.25
875.87	-7.12
876.18	-1.81
876.49	-3.73
876.81	-13.67
877.12	-22.15
877.43	-8.02
877.75	-11.53
878.06	8.59
878.37	-12.88
878.69	-14.01
879.00	-8.81
879.31	-17.85
879.63	6.67
879.94	-12.88
880.25	-4.41
880.57	-1.81
880.88	-11.30
881.19	10.51
881.50	-2.03
881.82	-11.75
882.13	-18.98
882.44	-14.24
882.76	-30.06
883.07	-11.30
883.38	-20.56
883.69	-23.84
884.01	-25.20
884.32	-7.91
884.63	-38.87
884.94	-25.42
885.25	-7.68
885.57	-2.37
885.88	-1.47
886.19	-17.40
886.50	-21.92
886.81	-15.37
887.13	7.91
887.44	-3.73
887.75	-6.89
888.06	-13.33
888.37	-11.75
888.69	-29.72
889.00	-19.77
889.31	-4.63
889.62	-11.30
889.93	-1.58
890.24	-7.34
890.55	-15.93
890.87	-9.60
891.18	8.36
891.49	-9.83
891.80	-12.77
892.11	-22.26
892.42	-5.76
892.73	-3.39
893.04	0.23
893.35	2.49
893.66	-11.30
893.98	-34.01
894.29	-18.87
894.60	-17.97
894.91	-1.24
895.22	-21.69
895.53	-25.31
895.84	-16.72
896.15	-11.41
896.46	-3.28
896.77	-11.30
897.08	-25.76
897.39	-29.04
897.70	-9.27
898.01	-12.99
898.32	-23.62
898.63	-10.96
898.94	1.92
899.25	-14.69
899.56	-9.72
899.87	-3.95
900.18	9.38
900.49	-19.66
900.80	-24.41
901.11	-17.97
901.42	-22.60
901.73	-12.77
902.04	-8.70
902.35	-13.56
902.66	-25.54
902.96	-22.15
903.27	-8.14
903.58	-12.88
903.89	-2.82
904.20	-4.63
904.51	-27.23
904.82	-29.83
905.13	-39.21
905.44	-17.63
905.75	-23.95
906.05	-17.29
906.36	-3.39
906.67	-19.55
906.98	-21.58
907.29	-15.37
907.60	-18.30
907.91	0.45
908.21	-17.63
908.52	-18.64
908.83	-16.38
909.14	-7.68
909.45	-17.17
909.75	-25.31
910.06	-2.26
910.37	-22.82
910.68	-16.72
910.99	11.64
911.29	-10.17
911.60	-8.59
911.91	-27.91
912.22	-4.75
912.52	-20.56
912.83	-6.44
913.14	-19.10
913.45	-21.36
913.75	-18.98
914.06	-24.75
914.37	-9.83
914.68	-8.93
914.98	-16.84
915.29	-24.97
915.60	-18.30
915.91	-6.78
916.21	-12.99
916.52	-21.47
916.83	-20.79
917.13	-12.32
917.44	1.02
917.75	-4.07
918.05	-0.90
918.36	-23.39
918.67	-26.89
918.97	-27.34
919.28	-3.39
919.59	-25.20
919.89	-26.55
920.20	-17.06
920.50	-13.11
920.81	-37.17
921.12	-24.18
921.42	-16.61
921.73	-31.30
922.03	-31.19
922.34	-16.04
922.65	-7.12
922.95	-12.99
923.26	-23.05
923.56	-31.30
923.87	-27.80
924.18	-19.89
924.48	-10.85
924.79	-15.03
925.09	-15.48
925.40	-6.55
925.70	-31.52
926.01	-15.03
926.31	-5.42
926.62	-30.96
926.92	-28.25
927.23	-28.93
927.53	-27.91
927.84	-18.76
928.14	-29.26
928.45	-5.76
928.75	11.64
929.06	-9.72
929.36	7.23
929.67	-12.09
929.97	-11.98
930.28	2.49
930.58	-10.40
930.89	-19.43
931.19	-19.21
931.49	-18.98
931.80	-31.07
932.10	-7.57
932.41	-25.42
932.71	-34.24
933.01	-13.22
933.32	-12.32
933.62	-3.16
933.93	-8.93
934.23	1.47
934.53	-2.49
934.84	17.40
935.14	-2.49
935.45	-17.40
935.75	-21.81
936.05	-17.63
936.36	-12.09
936.66	-3.62
936.96	-28.02
937.27	-9.94
937.57	-0.79
937.87	-11.86
938.18	-22.37
938.48	-15.48
938.78	-9.04
939.08	-45.54
939.39	-17.40
939.69	-4.86
939.99	-6.44
940.30	-15.48
940.60	-15.25
940.90	-11.07
941.20	-25.54
941.51	-9.60
941.81	-15.48
942.11	-29.04
942.41	-10.73
942.72	-27.80
943.02	-23.28
943.32	-10.96
943.62	-10.96
943.93	-17.63
944.23	4.41
944.53	-14.69
944.83	-15.25
945.13	4.18
945.44	-18.76
945.74	-18.08
946.04	-24.63
946.34	-9.27
946.64	-24.52
946.94	2.26
947.25	-17.97
947.55	-26.33
947.85	-16.04
948.15	-25.54
948.45	-21.69
948.75	-24.75
949.05	-27.46
949.35	-5.54
949.66	-1.47
949.96	-16.61
950.26	-28.13
950.56	-11.07
950.86	-9.83
951.16	-22.03
951.46	-5.99
951.76	-19.89
952.06	-22.82
952.36	-9.49
952.66	-18.64
952.96	-7.57
953.26	-28.02
953.57	-10.73
953.87	-19.10
954.17	-2.26
954.47	-15.25
954.77	-39.10
955.07	-11.98
955.37	-26.33
955.67	-13.11
955.97	-1.69
956.27	-5.65
956.57	-7.91
956.87	-8.14
957.17	-19.66
957.47	-23.73
957.77	-1.81
958.06	-28.13
958.36	-15.14
958.66	-18.87
958.96	-14.58
959.26	-23.62
959.56	-20.00
959.86	-20.34
960.16	1.69
960.46	-14.80
960.76	-21.13
961.06	-11.86
961.36	-30.06
961.66	-13.78
961.95	-11.19
962.25	-8.70
962.55	-19.32
962.85	-2.94
963.15	-4.75
963.45	-15.82
963.75	-15.71
964.05	-13.67
964.34	3.16
964.64	-23.39
964.94	-29.72
965.24	-33.22
965.54	-12.09
965.83	-2.71
966.13	-8.93
966.43	-9.27
966.73	4.86
967.03	-16.16
967.32	-15.37
967.62	-0.90
967.92	-9.49
968.22	-18.64
968.52	-13.11
968.81	-27.91
969.11	-19.32
969.41	-15.48
969.71	-3.16
970.00	10.62
970.30	2.94
970.60	-6.33
970.90	-13.78
971.19	-0.56
971.49	-16.61
971.79	-17.63
972.08	-16.61
972.38	-22.26
972.68	-20.56
972.97	-7.68
973.27	-6.21
973.57	-19.21
973.87	-7.34
974.16	-17.40
974.46	-7.57
974.75	-18.53
975.05	-18.64
975.35	-2.71
975.64	-12.99
975.94	-11.75
976.24	-14.46
976.53	-15.03
976.83	-22.26
977.13	-20.79
977.42	-4.41
977.72	5.88
978.01	-23.50
978.31	-22.82
978.60	-13.56
978.90	-16.95
979.20	-20.11
979.49	-22.26
979.79	-28.36
980.08	-2.15
980.38	-8.47
980.67	-14.01
980.97	-17.74
981.26	-19.21
981.56	-7.68
981.86	-6.10
982.15	-12.66
982.45	2.82
982.74	1.47
983.04	-25.31
983.33	-16.95
983.63	-16.16
983.92	-13.67
984.21	0.90
984.51	-26.67
984.80	-9.38
985.10	-34.69
985.39	-19.89
985.69	-17.97
985.98	-30.85
986.28	-24.52
986.57	-16.04
986.87	-8.59
987.16	-26.78
987.45	-2.37
987.75	-13.11
988.04	9.15
988.34	-20.45
988.63	-17.97
988.92	-16.84
989.22	-14.69
989.51	-15.59
989.80	-24.97
990.10	8.81
990.39	-20.56
990.69	-21.92
990.98	-25.99
991.27	4.63
991.57	-20.56
991.86	-12.77
992.15	-5.31
992.45	-21.36
992.74	-21.24
993.03	-15.82
993.33	-18.87
993.62	-3.16
993.91	-19.77
994.20	-7.46
994.50	-26.67
994.79	-2.71
995.08	-12.09
995.37	-4.52
995.67	-7.34
995.96	-6.89
996.25	-11.75
996.54	2.71
996.84	2.82
997.13	-14.91
997.42	-7.91
997.71	-16.50
998.01	1.92
998.30	-21.81
998.59	1.36
998.88	-16.04
999.17	-9.49
999.47	-17.29
999.76	-11.53
1000.05	-28.36
1000.34	-14.80
1000.63	-17.51
1000.92	-15.59
1001.22	-14.35
1001.51	-9.49
1001.80	-7.91
1002.09	-15.37
1002.38	-6.44
1002.67	-27.00
1002.96	-16.04
1003.26	-15.59
1003.55	-21.47
1003.84	-17.51
1004.13	-16.16
1004.42	-14.35
1004.71	-29.83
1005.00	-12.32
1005.29	-2.15
1005.58	-17.17
1005.87	-19.10
1006.16	-27.23
1006.45	-9.60
1006.74	-18.42
1007.04	-19.43
1007.33	-2.15
1007.62	-19.77
1007.91	-1.69
1008.20	-21.13
1008.49	-17.74
1008.78	-24.75
1009.07	-22.60
1009.36	-3.73
1009.65	-14.91
1009.94	-25.54
1010.23	-16.04
1010.52	-14.46
1010.81	-17.74
1011.10	-15.71
1011.38	-32.54
1011.67	-25.99
1011.96	2.26
1012.25	-4.29
1012.54	-25.99
1012.83	-27.57
1013.12	-21.36
1013.41	-27.91
1013.70	-17.85
1013.99	-30.39
1014.28	-6.44
1014.57	-23.16
1014.86	-4.29
1015.14	-0.90
1015.43	-10.85
1015.72	-15.03
1016.01	-21.92
1016.30	-11.75
1016.59	-10.73
1016.88	-16.84
1017.16	-14.35
1017.45	-17.85
1017.74	-2.15
1018.03	-9.38
1018.32	-15.59
1018.61	-18.42
1018.89	-10.85
1019.18	-19.77
1019.47	-15.71
1019.76	-24.63
1020.05	-10.06
1020.33	-25.88
1020.62	-7.80
1020.91	8.14
1021.20	-13.67
1021.48	-23.16
1021.77	-12.20
1022.06	-16.38
1022.35	1.36
1022.63	-27.80
1022.92	-29.83
1023.21	6.89
1023.50	-23.62
1023.78	-13.33
1024.07	-1.13
1024.36	-8.47
1024.64	-9.49
1024.93	-20.56
1025.22	-19.21
1025.50	-2.37
1025.79	-19.43
1026.08	-17.06
1026.36	-20.23
1026.65	-23.16
1026.94	-14.24
1027.22	-19.89
1027.51	-3.95
1027.80	-4.86
1028.08	-15.82
1028.37	-25.42
1028.66	-20.00
1028.94	-30.51
>>>>>End Processed Spectral Data<<<<<
