SpectraSuite Data File
++++++++++++++++++++++++++++++++++++
Date: Thu Jun 15 11:38:02 BST 2017
User: Eng0000912
Dark Spectrum Present: Yes
Reference Spectrum Present: No
Number of Sampled Component Spectra: 1
Spectrometers: USB2+H04851
Integration Time (usec): 100000 (USB2+H04851)
Spectra Averaged: 20 (USB2+H04851)
Boxcar Smoothing: 0 (USB2+H04851)
Correct for Electrical Dark: No (USB2+H04851)
Strobe/Lamp Enabled: No (USB2+H04851)
Correct for Detector Non-linearity: No (USB2+H04851)
Correct for Stray Light: No (USB2+H04851)
Number of Pixels in Processed Spectrum: 2048
>>>>>Begin Processed Spectral Data<<<<<
340.07	-10.73
340.45	-10.73
340.82	-10.73
341.20	-26.10
341.58	0.90
341.96	-31.64
342.34	-32.43
342.72	-12.77
343.10	-25.76
343.48	-19.66
343.85	-24.41
344.23	-18.30
344.61	-1.36
344.99	-2.60
345.37	8.93
345.75	-18.64
346.13	-33.67
346.50	-23.39
346.88	-21.36
347.26	-31.86
347.64	-23.28
348.02	-14.35
348.40	-19.21
348.77	-11.75
349.15	-18.64
349.53	-33.78
349.91	-18.08
350.29	-16.04
350.66	-11.30
351.04	-18.87
351.42	-1.47
351.80	-17.97
352.18	-8.81
352.55	-6.67
352.93	-10.73
353.31	-27.00
353.69	-23.39
354.07	-15.48
354.44	-7.68
354.82	-16.27
355.20	-20.45
355.58	-20.45
355.95	-24.97
356.33	-12.54
356.71	-18.76
357.09	-32.09
357.46	-26.78
357.84	-12.77
358.22	-14.46
358.60	-26.44
358.97	-20.23
359.35	-17.06
359.73	-20.68
360.10	-18.98
360.48	-18.53
360.86	-20.45
361.24	-16.72
361.61	-10.17
361.99	-31.07
362.37	-25.08
362.74	-22.60
363.12	-7.12
363.50	-47.23
363.87	-5.99
364.25	-16.72
364.63	-41.92
365.01	-18.19
365.38	-29.94
365.76	-23.95
366.14	-28.25
366.51	-23.50
366.89	-24.75
367.27	-20.90
367.64	-7.46
368.02	-29.26
368.39	-10.62
368.77	-28.36
369.15	-9.94
369.52	-0.23
369.90	-12.43
370.28	-14.80
370.65	-20.11
371.03	-23.39
371.40	-15.14
371.78	-14.46
372.16	-21.36
372.53	-4.75
372.91	-17.74
373.28	-16.95
373.66	-17.51
374.04	-14.69
374.41	-27.00
374.79	-9.15
375.16	-23.73
375.54	-12.54
375.92	-17.74
376.29	-29.38
376.67	-16.16
377.04	-21.47
377.42	-18.76
377.79	-21.69
378.17	-20.79
378.55	-16.84
378.92	-3.95
379.30	-22.94
379.67	-38.08
380.05	7.23
380.42	-14.35
380.80	-11.86
381.17	-12.20
381.55	-14.58
381.92	-21.58
382.30	-20.45
382.67	-20.90
383.05	8.36
383.42	-22.03
383.80	-23.84
384.17	6.10
384.55	-10.62
384.92	-19.21
385.30	-24.86
385.67	-22.26
386.05	-5.99
386.42	-15.48
386.80	-7.23
387.17	-22.03
387.55	-18.76
387.92	-4.07
388.30	-17.06
388.67	-13.56
389.04	-29.72
389.42	-34.91
389.79	-24.18
390.17	-23.84
390.54	-20.68
390.92	-19.66
391.29	-22.60
391.67	4.75
392.04	-27.46
392.41	-13.33
392.79	-41.02
393.16	-24.86
393.54	-13.67
393.91	-20.79
394.28	-4.29
394.66	-20.00
395.03	-23.73
395.41	-26.78
395.78	-1.47
396.15	-13.90
396.53	-25.31
396.90	-25.42
397.28	-10.85
397.65	-4.52
398.02	-4.41
398.40	-1.58
398.77	-20.34
399.14	-21.36
399.52	-29.60
399.89	-26.21
400.26	-27.00
400.64	-12.66
401.01	-18.53
401.38	5.54
401.76	-17.40
402.13	-16.50
402.50	-3.50
402.88	-22.49
403.25	-13.45
403.62	-28.81
404.00	2.03
404.37	-24.18
404.74	-22.82
405.12	-45.76
405.49	-15.71
405.86	-19.55
406.23	-22.49
406.61	-9.27
406.98	-13.45
407.35	-34.12
407.73	-17.06
408.10	9.38
408.47	-3.39
408.84	-14.01
409.22	-25.31
409.59	-11.64
409.96	-32.32
410.33	-26.10
410.71	-11.98
411.08	3.95
411.45	-21.02
411.82	-27.12
412.20	-10.51
412.57	-7.91
412.94	-18.30
413.31	-33.11
413.68	-13.67
414.06	-27.23
414.43	-26.55
414.80	-12.88
415.17	-2.49
415.55	-17.97
415.92	-6.44
416.29	7.91
416.66	-9.94
417.03	-20.00
417.40	-11.98
417.78	-26.33
418.15	-27.23
418.52	-9.60
418.89	-16.16
419.26	-16.61
419.63	-22.49
420.01	-18.64
420.38	-13.33
420.75	-10.62
421.12	-11.07
421.49	-9.83
421.86	-3.50
422.23	-15.71
422.61	-14.46
422.98	-27.12
423.35	-25.08
423.72	-7.46
424.09	-28.36
424.46	1.02
424.83	-37.85
425.20	-11.64
425.58	-18.98
425.95	-11.53
426.32	-20.00
426.69	-18.87
427.06	-7.68
427.43	-10.62
427.80	-17.74
428.17	-15.37
428.54	-2.71
428.91	-19.10
429.28	-6.55
429.65	-21.36
430.02	-12.09
430.40	-4.86
430.77	-29.83
431.14	-24.97
431.51	-6.55
431.88	-5.54
432.25	-19.66
432.62	-18.76
432.99	-11.64
433.36	-13.33
433.73	-24.18
434.10	-16.04
434.47	-15.93
434.84	-23.16
435.21	-5.20
435.58	-2.71
435.95	-5.88
436.32	-26.21
436.69	-21.02
437.06	-14.01
437.43	-6.10
437.80	-22.94
438.17	-18.30
438.54	-12.66
438.91	-3.62
439.28	-10.06
439.65	-21.24
440.02	-27.00
440.39	-32.99
440.76	-31.19
441.13	-14.69
441.49	-4.29
441.86	-10.28
442.23	0.23
442.60	-26.89
442.97	-23.50
443.34	-23.39
443.71	-25.99
444.08	-33.11
444.45	-2.37
444.82	-16.61
445.19	-9.83
445.56	-26.21
445.93	-26.21
446.29	-22.03
446.66	-32.20
447.03	-22.60
447.40	-15.82
447.77	-20.90
448.14	-19.43
448.51	-7.23
448.88	-7.12
449.24	-16.38
449.61	-32.77
449.98	-10.06
450.35	-19.89
450.72	-19.66
451.09	-15.59
451.46	-11.19
451.82	-7.23
452.19	-13.11
452.56	-13.11
452.93	-16.50
453.30	-22.03
453.67	-7.57
454.03	-32.20
454.40	-30.28
454.77	-1.92
455.14	-22.26
455.51	-18.30
455.87	-4.41
456.24	-1.24
456.61	-12.66
456.98	-26.67
457.35	-13.67
457.71	-8.25
458.08	-33.67
458.45	3.84
458.82	-33.45
459.19	-25.20
459.55	-21.69
459.92	-11.07
460.29	-1.36
460.66	-14.58
461.02	-7.46
461.39	-8.47
461.76	-22.82
462.13	-22.82
462.49	2.71
462.86	-9.94
463.23	-30.51
463.59	-8.25
463.96	-32.09
464.33	4.29
464.70	-8.47
465.06	5.65
465.43	-15.03
465.80	-28.25
466.16	-18.64
466.53	-31.86
466.90	-8.47
467.26	-24.63
467.63	-9.60
468.00	-23.95
468.36	-14.46
468.73	-15.71
469.10	-35.25
469.46	-6.89
469.83	-20.34
470.20	-19.89
470.56	-18.98
470.93	-38.30
471.30	-23.50
471.66	-17.97
472.03	-9.94
472.40	-13.22
472.76	-19.89
473.13	-33.67
473.50	-42.71
473.86	-14.91
474.23	-25.42
474.59	-16.61
474.96	-32.88
475.33	-6.33
475.69	-7.23
476.06	-33.33
476.42	-10.96
476.79	-7.23
477.16	-3.28
477.52	-15.71
477.89	-8.25
478.25	1.92
478.62	-18.76
478.98	-16.38
479.35	-2.71
479.72	-30.39
480.08	-7.57
480.45	-8.93
480.81	-10.62
481.18	-26.89
481.54	-30.96
481.91	-25.31
482.27	-24.75
482.64	-12.99
483.00	-10.17
483.37	-16.04
483.73	-21.02
484.10	-16.50
484.46	-14.69
484.83	-9.04
485.19	-26.67
485.56	-8.02
485.92	-11.98
486.29	-27.34
486.65	-15.82
487.02	-17.63
487.38	-21.02
487.75	-20.11
488.11	-16.61
488.48	-10.85
488.84	-29.72
489.21	-13.33
489.57	-36.16
489.94	-28.13
490.30	-9.38
490.66	-3.05
491.03	-9.83
491.39	-19.32
491.76	-28.93
492.12	-26.21
492.49	-19.89
492.85	-9.60
493.21	-32.65
493.58	6.33
493.94	11.98
494.31	-9.15
494.67	-22.37
495.03	-13.67
495.40	-15.14
495.76	-24.52
496.13	-18.08
496.49	-14.12
496.85	-24.52
497.22	-23.62
497.58	-10.51
497.94	-2.94
498.31	-0.79
498.67	-26.55
499.04	-11.75
499.40	-10.06
499.76	-27.34
500.13	-29.60
500.49	1.36
500.85	-8.02
501.22	12.43
501.58	-26.44
501.94	-2.03
502.31	-8.59
502.67	-1.36
503.03	-18.30
503.40	-18.64
503.76	-26.21
504.12	-25.31
504.48	-13.78
504.85	-15.37
505.21	-26.89
505.57	-25.42
505.94	-8.93
506.30	-13.11
506.66	-8.70
507.02	-16.38
507.39	-14.80
507.75	-30.06
508.11	-4.86
508.47	-16.16
508.84	-13.22
509.20	2.03
509.56	-29.15
509.92	-15.14
510.29	-10.62
510.65	-15.82
511.01	-15.82
511.37	-23.95
511.74	-11.64
512.10	-20.11
512.46	-9.49
512.82	-8.02
513.18	-22.26
513.55	-6.89
513.91	-18.64
514.27	-21.81
514.63	-19.89
514.99	-15.48
515.35	-10.62
515.72	-8.02
516.08	-25.76
516.44	-29.26
516.80	-15.25
517.16	-22.37
517.52	-10.40
517.89	-19.10
518.25	-25.88
518.61	-23.28
518.97	-10.06
519.33	-17.06
519.69	-12.32
520.05	-20.68
520.42	-51.98
520.78	-28.70
521.14	-26.21
521.50	-14.80
521.86	-25.88
522.22	-4.52
522.58	-19.66
522.94	-11.86
523.30	-7.12
523.67	-11.30
524.03	-35.03
524.39	-25.31
524.75	-22.26
525.11	-17.74
525.47	-3.84
525.83	-26.10
526.19	-19.21
526.55	10.06
526.91	-20.23
527.27	-6.21
527.63	-6.33
527.99	-21.47
528.35	-9.49
528.71	-22.03
529.07	-16.72
529.43	-0.23
529.79	-14.46
530.15	-3.05
530.51	-36.72
530.87	-19.89
531.23	-13.45
531.59	-2.26
531.95	-15.93
532.31	-36.50
532.67	-29.04
533.03	-16.38
533.39	-25.42
533.75	-1.58
534.11	-34.46
534.47	-5.65
534.83	-18.42
535.19	5.88
535.55	-15.48
535.91	-32.65
536.27	-25.20
536.63	-22.26
536.99	-11.75
537.35	-8.70
537.71	-16.72
538.07	-15.14
538.43	-15.71
538.79	-21.47
539.15	-9.60
539.51	-16.38
539.86	-13.45
540.22	-26.33
540.58	-34.46
540.94	-8.93
541.30	-18.64
541.66	-24.18
542.02	-3.50
542.38	-1.81
542.74	-2.49
543.09	-16.27
543.45	-13.22
543.81	-19.77
544.17	-11.86
544.53	-31.75
544.89	-15.59
545.25	-20.56
545.60	-21.13
545.96	-42.48
546.32	-9.83
546.68	-8.70
547.04	-22.49
547.40	-4.52
547.75	-19.77
548.11	-36.04
548.47	-30.28
548.83	-14.01
549.19	-18.19
549.55	-15.37
549.90	-15.82
550.26	-14.35
550.62	-13.11
550.98	-16.72
551.34	-20.00
551.69	-8.59
552.05	-21.81
552.41	-34.58
552.77	-11.41
553.12	-30.62
553.48	-16.38
553.84	-1.58
554.20	-7.12
554.55	-23.50
554.91	-0.34
555.27	-31.41
555.63	-8.93
555.98	-11.30
556.34	-26.67
556.70	-8.36
557.05	-10.28
557.41	-23.28
557.77	-28.02
558.13	-25.20
558.48	-27.80
558.84	-20.90
559.20	-2.37
559.55	-14.46
559.91	-13.33
560.27	-15.82
560.62	-15.14
560.98	-13.22
561.34	-1.58
561.69	-14.58
562.05	-36.84
562.41	-30.06
562.76	-7.68
563.12	-29.26
563.48	-4.07
563.83	-21.02
564.19	-12.88
564.55	-15.25
564.90	-6.89
565.26	-31.75
565.62	-12.88
565.97	-9.04
566.33	-2.94
566.68	-13.56
567.04	-12.20
567.40	-5.42
567.75	-19.66
568.11	-12.66
568.46	-5.76
568.82	-5.88
569.18	-10.28
569.53	-22.03
569.89	-13.11
570.24	12.43
570.60	-21.81
570.95	-4.29
571.31	-1.02
571.66	13.11
572.02	22.94
572.38	30.85
572.73	43.73
573.09	39.66
573.44	50.06
573.80	33.78
574.15	34.24
574.51	35.48
574.86	52.88
575.22	51.19
575.57	32.32
575.93	38.98
576.28	34.80
576.64	29.04
576.99	47.12
577.35	38.76
577.70	40.11
578.06	25.99
578.41	31.07
578.77	25.08
579.12	-1.13
579.48	28.02
579.83	19.10
580.18	8.36
580.54	1.69
580.89	11.07
581.25	6.10
581.60	19.66
581.96	-34.12
582.31	-17.74
582.67	2.49
583.02	-11.86
583.37	-1.02
583.73	-17.06
584.08	-14.35
584.44	-15.59
584.79	-7.12
585.14	-10.73
585.50	-24.86
585.85	-30.51
586.21	-27.46
586.56	-13.90
586.91	-27.00
587.27	-1.13
587.62	-15.71
587.97	-16.95
588.33	-21.13
588.68	-12.99
589.03	-1.81
589.39	3.05
589.74	-9.27
590.09	-1.58
590.45	-9.04
590.80	-2.71
591.15	-6.33
591.51	-32.65
591.86	-20.68
592.21	-14.91
592.57	-25.99
592.92	-14.69
593.27	-20.90
593.63	-32.65
593.98	-12.09
594.33	-23.16
594.69	-9.27
595.04	-2.60
595.39	-6.55
595.74	0.23
596.10	-11.86
596.45	-35.14
596.80	-22.94
597.15	-21.13
597.51	-9.60
597.86	0.56
598.21	-7.01
598.56	0.11
598.92	-28.47
599.27	-21.13
599.62	-2.49
599.97	-8.81
600.32	4.07
600.68	-1.58
601.03	4.52
601.38	-5.08
601.73	2.60
602.09	-19.32
602.44	-27.12
602.79	-29.26
603.14	-3.62
603.49	-19.66
603.84	-13.33
604.20	-16.50
604.55	-2.26
604.90	-18.42
605.25	-14.80
605.60	-13.22
605.95	-25.31
606.31	-25.31
606.66	-24.52
607.01	-15.25
607.36	-27.57
607.71	-22.60
608.06	-4.41
608.41	-34.80
608.76	-17.74
609.12	-17.51
609.47	-14.01
609.82	-22.49
610.17	-3.39
610.52	-21.92
610.87	3.95
611.22	-2.94
611.57	-7.91
611.92	-12.54
612.27	-14.24
612.62	-21.47
612.98	-9.94
613.33	-16.50
613.68	-12.66
614.03	-11.53
614.38	-16.27
614.73	-27.57
615.08	-20.11
615.43	-13.45
615.78	-31.52
616.13	-23.39
616.48	-16.84
616.83	-13.56
617.18	-40.45
617.53	-23.50
617.88	-8.81
618.23	-10.62
618.58	-6.10
618.93	-3.39
619.28	0.34
619.63	-23.84
619.98	-4.18
620.33	-16.04
620.68	-17.06
621.03	-9.72
621.38	-8.70
621.73	-31.30
622.08	-6.44
622.43	-7.80
622.78	-1.69
623.13	-19.89
623.48	8.59
623.82	-19.43
624.17	-14.58
624.52	-42.15
624.87	-18.87
625.22	-21.47
625.57	-12.99
625.92	-29.26
626.27	-12.43
626.62	-17.06
626.97	-19.21
627.32	-23.50
627.66	-5.99
628.01	-12.09
628.36	-29.83
628.71	-21.13
629.06	-10.85
629.41	-5.20
629.76	-23.05
630.11	-22.94
630.45	-11.86
630.80	-20.56
631.15	-5.20
631.50	-16.50
631.85	-26.78
632.20	-11.64
632.54	-8.14
632.89	-28.36
633.24	-16.61
633.59	-8.81
633.94	-3.05
634.29	-13.45
634.63	8.81
634.98	-12.88
635.33	-18.53
635.68	14.58
636.02	-16.27
636.37	-25.31
636.72	-16.95
637.07	-22.94
637.42	-18.42
637.76	-14.12
638.11	0.00
638.46	-5.20
638.81	-15.14
639.15	-23.95
639.50	-25.20
639.85	-18.19
640.20	-1.13
640.54	-27.00
640.89	-11.30
641.24	-2.49
641.58	-17.29
641.93	-2.49
642.28	-6.67
642.63	-10.28
642.97	-12.32
643.32	1.24
643.67	3.16
644.01	-32.43
644.36	-21.02
644.71	-20.68
645.05	-1.69
645.40	1.47
645.75	-34.58
646.09	-23.16
646.44	-11.19
646.79	-11.75
647.13	-24.75
647.48	1.81
647.83	4.41
648.17	-3.28
648.52	-5.42
648.86	-18.87
649.21	-5.88
649.56	-5.08
649.90	5.08
650.25	-10.40
650.60	-14.91
650.94	-4.86
651.29	-13.67
651.63	14.01
651.98	-16.38
652.33	-20.79
652.67	-18.98
653.02	-11.41
653.36	-14.80
653.71	-1.36
654.05	-15.37
654.40	-1.58
654.74	-19.32
655.09	-15.48
655.44	10.85
655.78	-13.78
656.13	-8.81
656.47	-5.54
656.82	-1.81
657.16	-2.26
657.51	-7.68
657.85	-24.07
658.20	-24.97
658.54	-4.63
658.89	8.59
659.23	3.28
659.58	23.95
659.92	-1.81
660.27	-10.96
660.61	-9.83
660.96	1.02
661.30	2.60
661.65	-6.21
661.99	-3.73
662.33	6.67
662.68	0.23
663.02	0.45
663.37	16.72
663.71	16.27
664.06	4.29
664.40	7.12
664.75	1.58
665.09	-7.12
665.43	15.93
665.78	5.54
666.12	13.11
666.47	26.33
666.81	15.82
667.15	3.39
667.50	15.71
667.84	12.32
668.19	8.02
668.53	11.86
668.87	-5.65
669.22	10.73
669.56	15.59
669.90	7.34
670.25	1.92
670.59	30.28
670.93	24.63
671.28	24.63
671.62	27.57
671.96	21.36
672.31	43.50
672.65	38.30
672.99	35.82
673.34	27.12
673.68	26.10
674.02	27.57
674.37	38.98
674.71	41.02
675.05	32.54
675.40	41.35
675.74	42.37
676.08	43.50
676.42	49.15
676.77	27.00
677.11	41.35
677.45	43.95
677.79	42.37
678.14	49.83
678.48	58.98
678.82	61.69
679.16	57.40
679.51	65.42
679.85	35.93
680.19	55.37
680.53	59.55
680.88	67.23
681.22	71.86
681.56	79.66
681.90	66.44
682.24	71.07
682.59	61.35
682.93	95.36
683.27	84.07
683.61	79.55
683.95	64.52
684.29	78.75
684.64	80.00
684.98	85.76
685.32	85.20
685.66	88.81
686.00	102.03
686.34	80.11
686.69	92.99
687.03	106.89
687.37	113.78
687.71	127.12
688.05	104.18
688.39	122.82
688.73	125.42
689.07	116.27
689.41	134.57
689.76	115.03
690.10	123.27
690.44	128.13
690.78	132.09
691.12	124.74
691.46	126.32
691.80	160.00
692.14	157.17
692.48	174.46
692.82	162.93
693.16	176.61
693.50	172.54
693.84	187.23
694.18	185.64
694.53	188.81
694.87	204.74
695.21	215.36
695.55	201.92
695.89	232.08
696.23	233.10
696.57	215.25
696.91	247.68
697.25	226.43
697.59	247.90
697.93	277.73
698.27	252.08
698.61	257.51
698.95	295.81
699.29	287.00
699.63	291.63
699.97	291.97
700.30	314.91
700.64	312.76
700.98	322.14
701.32	333.66
701.66	326.55
702.00	337.73
702.34	340.56
702.68	364.06
703.02	392.31
703.36	392.08
703.70	392.31
704.04	395.47
704.38	420.21
704.72	417.50
705.05	442.14
705.39	450.27
705.73	457.73
706.07	462.93
706.41	476.82
706.75	484.73
707.09	527.90
707.43	511.62
707.77	543.04
708.10	550.38
708.44	562.25
708.78	564.50
709.12	574.45
709.46	622.81
709.80	600.32
710.13	640.77
710.47	658.74
710.81	659.87
711.15	681.68
711.49	695.01
711.82	713.31
712.16	748.57
712.50	746.65
712.84	766.42
713.18	782.92
713.51	798.74
713.85	826.53
714.19	832.75
714.53	852.29
714.87	896.25
715.20	912.29
715.54	892.07
715.88	923.82
716.22	938.39
716.55	983.03
716.89	998.73
717.23	1043.59
717.57	1034.55
717.90	1090.37
718.24	1097.03
718.58	1122.80
718.91	1148.44
719.25	1184.38
719.59	1214.54
719.93	1257.37
720.26	1264.49
720.60	1310.47
720.94	1340.87
721.27	1351.26
721.61	1385.39
721.95	1411.04
722.28	1448.10
722.62	1515.21
722.96	1539.85
723.29	1562.67
723.63	1591.48
723.97	1649.67
724.30	1672.50
724.64	1728.54
724.97	1773.06
725.31	1803.57
725.65	1845.49
725.98	1902.89
726.32	1913.51
726.66	1979.04
726.99	2027.97
727.33	2094.41
727.66	2162.09
728.00	2205.37
728.33	2250.00
728.67	2305.59
729.01	2358.47
729.34	2422.42
729.68	2487.28
730.01	2524.23
730.35	2593.60
730.68	2648.52
731.02	2710.21
731.36	2778.35
731.69	2890.32
732.03	2938.23
732.36	2994.72
732.70	3042.07
733.03	3130.88
733.37	3171.44
733.70	3270.20
734.04	3369.29
734.37	3403.07
734.71	3500.81
735.04	3597.19
735.38	3651.09
735.71	3753.01
736.05	3803.74
736.38	3907.81
736.72	3978.99
737.05	4068.59
737.38	4174.47
737.72	4249.15
738.05	4316.72
738.39	4402.26
738.72	4500.22
739.06	4585.19
739.39	4655.02
739.73	4769.82
740.06	4868.57
740.39	4949.02
740.73	5083.82
741.06	5173.99
741.40	5250.94
741.73	5377.26
742.06	5454.55
742.40	5527.65
742.73	5611.49
743.07	5717.93
743.40	5888.09
743.73	5999.96
744.07	6064.02
744.40	6186.50
744.73	6328.65
745.07	6413.28
745.40	6488.42
745.73	6684.23
746.07	6735.19
746.40	6861.18
746.73	6940.61
747.07	7080.83
747.40	7164.11
747.73	7360.03
748.07	7390.88
748.40	7581.61
748.73	7637.54
749.07	7866.23
749.40	7912.79
749.73	8029.17
750.06	8111.76
750.40	8248.48
750.73	8405.54
751.06	8525.76
751.40	8679.32
751.73	8765.98
752.06	8890.27
752.39	9038.18
752.73	9150.72
753.06	9345.18
753.39	9447.66
753.72	9508.34
754.05	9645.74
754.39	9791.72
754.72	9898.04
755.05	10108.89
755.38	10202.22
755.72	10300.75
756.05	10375.77
756.38	10539.84
756.71	10635.09
757.04	10855.42
757.37	10897.34
757.71	11051.01
758.04	11056.66
758.37	11263.66
758.70	11260.83
759.03	11446.25
759.36	11601.62
759.70	11707.71
760.03	11808.05
760.36	12010.76
760.69	12148.83
761.02	12246.23
761.35	12322.50
761.68	12479.67
762.01	12596.96
762.35	12646.56
762.68	12702.83
763.01	12877.40
763.34	12893.22
763.67	12979.88
764.00	13047.11
764.33	13200.22
764.66	13105.42
764.99	13233.21
765.32	13298.41
765.65	13462.70
765.98	13609.92
766.31	13477.50
766.65	13503.71
766.98	13516.93
767.31	13597.38
767.64	13763.03
767.97	13587.67
768.30	13608.68
768.63	13713.09
768.96	13557.95
769.29	13562.81
769.62	13586.42
769.95	13585.86
770.28	13580.32
770.61	13476.59
770.94	13614.44
771.27	13625.63
771.60	13535.46
771.93	13492.98
772.26	13421.79
772.59	13406.43
772.92	13385.75
773.24	13424.05
773.57	13371.29
773.90	13281.01
774.23	13222.70
774.56	13151.41
774.89	13123.27
775.22	12971.30
775.55	12976.27
775.88	12842.49
776.21	12767.35
776.54	12626.00
776.87	12495.94
777.19	12386.79
777.52	12397.98
777.85	12197.76
778.18	12116.97
778.51	12015.62
778.84	11920.48
779.17	11825.68
779.50	11772.91
779.82	11566.25
780.15	11402.98
780.48	11274.51
780.81	11211.12
781.14	11145.36
781.47	11034.85
781.80	10805.14
782.12	10821.41
782.45	10645.71
782.78	10587.18
783.11	10405.26
783.44	10265.38
783.76	10217.70
784.09	9984.37
784.42	9879.18
784.75	9775.22
785.08	9644.49
785.40	9500.99
785.73	9437.04
786.06	9218.74
786.39	9181.11
786.71	8980.67
787.04	8939.65
787.37	8808.58
787.70	8634.58
788.02	8450.96
788.35	8316.62
788.68	8191.08
789.00	8047.36
789.33	7916.52
789.66	7791.21
789.99	7637.88
790.31	7467.04
790.64	7434.04
790.97	7242.86
791.29	7201.96
791.62	7010.21
791.95	6892.70
792.27	6733.61
792.60	6676.43
792.93	6576.78
793.25	6399.04
793.58	6333.96
793.91	6209.78
794.23	6058.60
794.56	5943.80
794.89	5857.93
795.21	5805.38
795.54	5633.98
795.87	5593.41
796.19	5427.65
796.52	5321.33
796.84	5235.57
797.17	5087.89
797.50	5058.06
797.82	4921.23
798.15	4815.92
798.47	4725.75
798.80	4648.92
799.12	4574.57
799.45	4447.00
799.78	4344.86
800.10	4236.39
800.43	4111.19
800.75	4032.55
801.08	3961.59
801.40	3870.63
801.73	3788.49
802.05	3663.52
802.38	3604.09
802.70	3516.40
803.03	3403.19
803.35	3351.21
803.68	3246.13
804.00	3156.30
804.33	3116.53
804.65	3037.21
804.98	2931.11
805.30	2820.26
805.63	2760.04
805.95	2700.27
806.28	2601.85
806.60	2494.85
806.93	2471.35
807.25	2396.55
807.58	2337.23
807.90	2308.30
808.22	2211.58
808.55	2163.56
808.87	2070.45
809.20	2032.71
809.52	1959.84
809.85	1912.49
810.17	1839.95
810.49	1781.08
810.82	1733.29
811.14	1707.75
811.47	1642.44
811.79	1581.54
812.11	1511.82
812.44	1483.12
812.76	1443.35
813.08	1369.12
813.41	1339.29
813.73	1304.15
814.05	1274.88
814.38	1203.81
814.70	1158.73
815.02	1135.79
815.35	1098.50
815.67	1070.59
815.99	1037.26
816.32	996.47
816.64	969.58
816.96	953.87
817.29	898.73
817.61	892.86
817.93	886.76
818.26	832.18
818.58	775.69
818.90	777.49
819.22	765.06
819.55	730.94
819.87	692.86
820.19	701.56
820.51	676.25
820.84	644.73
821.16	626.20
821.48	597.72
821.80	582.47
822.13	555.80
822.45	544.62
822.77	523.72
823.09	501.79
823.41	515.01
823.74	495.69
824.06	462.70
824.38	454.45
824.70	431.85
825.02	441.01
825.35	424.17
825.67	413.55
825.99	401.35
826.31	392.42
826.63	394.68
826.95	361.01
827.27	342.25
827.60	362.70
827.92	339.31
828.24	325.87
828.56	325.08
828.88	275.13
829.20	310.73
829.52	273.10
829.84	284.51
830.17	287.11
830.49	246.89
830.81	264.17
831.13	246.21
831.45	223.61
831.77	255.70
832.09	237.62
832.41	217.85
832.73	221.80
833.05	224.74
833.37	217.06
833.69	214.12
834.01	193.33
834.33	193.78
834.65	173.78
834.97	182.37
835.29	171.97
835.61	167.11
835.94	170.17
836.26	166.78
836.58	157.74
836.90	145.42
837.21	167.23
837.53	160.79
837.85	152.09
838.17	147.45
838.49	124.74
838.81	109.38
839.13	117.74
839.45	126.32
839.77	119.54
840.09	96.38
840.41	95.82
840.73	102.26
841.05	91.30
841.37	99.09
841.69	97.17
842.01	72.54
842.33	74.01
842.65	68.81
842.96	73.22
843.28	73.33
843.60	63.61
843.92	78.08
844.24	79.77
844.56	65.87
844.88	55.48
845.20	47.00
845.52	78.30
845.83	67.46
846.15	47.00
846.47	71.64
846.79	53.22
847.11	55.82
847.43	45.65
847.74	53.11
848.06	24.41
848.38	59.09
848.70	44.29
849.02	43.28
849.33	31.41
849.65	30.73
849.97	40.34
850.29	24.29
850.61	30.96
850.92	29.04
851.24	13.90
851.56	17.29
851.88	18.42
852.19	21.92
852.51	16.72
852.83	30.85
853.15	5.31
853.46	28.36
853.78	19.89
854.10	17.51
854.42	18.42
854.73	22.82
855.05	-15.59
855.37	10.62
855.68	9.49
856.00	24.63
856.32	8.36
856.63	-10.85
856.95	0.45
857.27	-2.37
857.59	-8.59
857.90	-18.19
858.22	-11.53
858.53	-0.68
858.85	14.80
859.17	8.59
859.48	9.04
859.80	-3.05
860.12	-15.14
860.43	6.78
860.75	-5.42
861.07	19.10
861.38	-14.80
861.70	-8.14
862.01	-15.03
862.33	-5.76
862.65	-14.24
862.96	-6.67
863.28	-13.33
863.59	-22.94
863.91	-1.47
864.22	18.30
864.54	-5.76
864.86	-4.41
865.17	-17.06
865.49	6.89
865.80	-3.50
866.12	-29.04
866.43	-11.75
866.75	-7.91
867.06	-3.16
867.38	17.40
867.69	-20.34
868.01	-7.23
868.32	-23.16
868.64	-0.68
868.95	-17.06
869.27	-0.79
869.58	-7.80
869.90	-5.42
870.21	-19.21
870.53	-0.90
870.84	2.03
871.15	-0.23
871.47	0.23
871.78	-10.85
872.10	-0.34
872.41	0.79
872.73	-28.81
873.04	-16.38
873.36	-25.65
873.67	-5.65
873.98	-0.45
874.30	-8.02
874.61	-21.69
874.93	-21.24
875.24	-14.35
875.55	-8.36
875.87	-7.12
876.18	-13.33
876.49	-5.76
876.81	-6.89
877.12	-15.14
877.43	-18.76
877.75	-5.20
878.06	-2.60
878.37	-14.35
878.69	-8.81
879.00	1.92
879.31	-20.79
879.63	-13.56
879.94	-13.56
880.25	-11.98
880.57	-8.70
880.88	128.02
881.19	3.05
881.50	-13.78
881.82	-15.59
882.13	-20.00
882.44	-3.95
882.76	-26.78
883.07	-14.69
883.38	-28.13
883.69	-18.64
884.01	-23.50
884.32	-24.86
884.63	-21.13
884.94	-12.43
885.25	-12.88
885.57	-9.83
885.88	-2.03
886.19	2.15
886.50	-12.77
886.81	-10.96
887.13	-4.18
887.44	-22.60
887.75	-18.53
888.06	-11.07
888.37	-8.25
888.69	-32.65
889.00	-22.26
889.31	-5.76
889.62	-14.12
889.93	-26.33
890.24	-9.38
890.55	-8.47
890.87	-30.06
891.18	-12.99
891.49	-23.28
891.80	-20.56
892.11	-10.28
892.42	-13.11
892.73	-11.53
893.04	-14.58
893.35	-3.39
893.66	-13.45
893.98	-30.73
894.29	-23.62
894.60	-33.22
894.91	-19.66
895.22	-26.44
895.53	-13.22
895.84	-9.72
896.15	-20.23
896.46	-14.91
896.77	-8.14
897.08	-11.41
897.39	-14.91
897.70	-6.44
898.01	-5.20
898.32	-27.57
898.63	-8.25
898.94	-8.47
899.25	-14.80
899.56	-9.27
899.87	-5.42
900.18	-5.76
900.49	-22.15
900.80	-32.88
901.11	-26.55
901.42	-10.96
901.73	2.71
902.04	-16.27
902.35	-7.68
902.66	-34.91
902.96	-6.89
903.27	-27.57
903.58	-26.21
903.89	-8.81
904.20	-21.69
904.51	-6.21
904.82	-30.73
905.13	-43.05
905.44	-31.86
905.75	-31.86
906.05	-23.62
906.36	-7.34
906.67	-25.31
906.98	-19.66
907.29	-27.68
907.60	-9.15
907.91	-11.19
908.21	-9.38
908.52	-20.90
908.83	-15.25
909.14	-14.80
909.45	-34.80
909.75	-19.43
910.06	-13.78
910.37	-3.73
910.68	-3.16
910.99	-14.24
911.29	-3.62
911.60	-20.56
911.91	-38.76
912.22	-10.06
912.52	-16.84
912.83	-10.51
913.14	-7.80
913.45	-31.86
913.75	-15.14
914.06	-21.13
914.37	-25.31
914.68	-8.02
914.98	-19.89
915.29	-27.91
915.60	-9.04
915.91	-13.78
916.21	-18.87
916.52	-17.51
916.83	-26.10
917.13	-13.45
917.44	-5.42
917.75	-12.54
918.05	-7.34
918.36	-15.14
918.67	-18.19
918.97	-11.30
919.28	-20.34
919.59	-30.06
919.89	-41.47
920.20	-23.39
920.50	-37.06
920.81	-22.03
921.12	-26.67
921.42	-35.37
921.73	-37.97
922.03	-19.89
922.34	-35.71
922.65	-21.58
922.95	-13.90
923.26	-32.99
923.56	-20.68
923.87	-20.34
924.18	-11.41
924.48	-5.76
924.79	-16.27
925.09	-21.24
925.40	1.36
925.70	-29.49
926.01	-23.95
926.31	-12.20
926.62	-39.21
926.92	-25.08
927.23	-27.57
927.53	-35.03
927.84	-34.58
928.14	-30.17
928.45	-10.73
928.75	-6.55
929.06	-8.36
929.36	-13.11
929.67	-9.83
929.97	-23.50
930.28	-6.33
930.58	-21.24
930.89	-10.17
931.19	-24.07
931.49	-37.06
931.80	-30.06
932.10	-8.02
932.41	-40.00
932.71	-33.56
933.01	-12.43
933.32	-5.88
933.62	-14.35
933.93	-20.00
934.23	-13.11
934.53	-29.60
934.84	6.10
935.14	-34.24
935.45	-30.73
935.75	-9.72
936.05	-14.46
936.36	-22.49
936.66	-6.21
936.96	-3.62
937.27	-28.70
937.57	-15.37
937.87	-13.78
938.18	-24.63
938.48	-28.81
938.78	-8.25
939.08	-43.16
939.39	-4.97
939.69	-22.15
939.99	-27.00
940.30	-10.17
940.60	4.29
940.90	-17.51
941.20	-25.31
941.51	-19.66
941.81	-10.62
942.11	-36.61
942.41	-13.90
942.72	-34.46
943.02	-29.38
943.32	-25.31
943.62	-25.65
943.93	-33.33
944.23	-9.83
944.53	-10.28
944.83	-12.99
945.13	-11.98
945.44	-26.10
945.74	-17.97
946.04	-25.88
946.34	-12.54
946.64	-26.67
946.94	-2.71
947.25	-7.46
947.55	-21.13
947.85	-14.69
948.15	-20.11
948.45	-24.29
948.75	-33.45
949.05	-34.01
949.35	-1.24
949.66	-3.73
949.96	-27.00
950.26	-30.51
950.56	-4.97
950.86	-27.91
951.16	-30.85
951.46	-18.08
951.76	-27.46
952.06	-19.89
952.36	-23.05
952.66	-16.27
952.96	-28.47
953.26	-23.50
953.57	-11.98
953.87	-23.73
954.17	-20.00
954.47	-21.47
954.77	-28.13
955.07	-15.82
955.37	-8.02
955.67	-8.14
955.97	-12.09
956.27	-14.35
956.57	-20.45
956.87	-21.36
957.17	-31.19
957.47	-5.08
957.77	-4.41
958.06	-23.39
958.36	-21.58
958.66	-12.32
958.96	-16.16
959.26	-7.80
959.56	-4.29
959.86	-28.47
960.16	-23.05
960.46	-14.91
960.76	-25.88
961.06	-25.20
961.36	-26.44
961.66	5.31
961.95	-16.27
962.25	-10.62
962.55	-9.60
962.85	-3.28
963.15	-21.24
963.45	-9.94
963.75	-10.73
964.05	1.69
964.34	-7.12
964.64	-16.50
964.94	-31.07
965.24	-24.63
965.54	-18.42
965.83	-10.06
966.13	-13.56
966.43	-19.10
966.73	7.12
967.03	-23.62
967.32	-14.35
967.62	-6.33
967.92	-20.79
968.22	-34.58
968.52	-37.97
968.81	-35.59
969.11	-16.27
969.41	-15.93
969.71	-12.32
970.00	2.15
970.30	12.99
970.60	-11.64
970.90	-23.95
971.19	-8.70
971.49	-23.50
971.79	-32.77
972.08	-7.12
972.38	-34.80
972.68	-22.03
972.97	-7.23
973.27	7.91
973.57	-17.85
973.87	-3.05
974.16	-25.76
974.46	-24.86
974.75	-15.48
975.05	-19.32
975.35	-8.02
975.64	-29.38
975.94	-22.82
976.24	-13.11
976.53	-17.17
976.83	-1.47
977.13	-7.91
977.42	-6.10
977.72	4.07
978.01	-29.49
978.31	-32.65
978.60	-27.68
978.90	-14.01
979.20	-27.57
979.49	-18.42
979.79	-21.13
980.08	-18.76
980.38	-20.79
980.67	-17.40
980.97	-22.71
981.26	-32.65
981.56	-9.72
981.86	-18.19
982.15	-11.64
982.45	-19.43
982.74	-22.49
983.04	-21.13
983.33	-11.75
983.63	-25.20
983.92	-13.78
984.21	-30.85
984.51	-35.14
984.80	-20.00
985.10	-26.78
985.39	-33.56
985.69	-24.41
985.98	-41.13
986.28	-24.41
986.57	-16.50
986.87	-4.97
987.16	-34.01
987.45	-22.37
987.75	-18.08
988.04	-12.09
988.34	-13.78
988.63	-8.36
988.92	-31.52
989.22	-21.36
989.51	-21.24
989.80	-26.78
990.10	-10.73
990.39	-18.87
990.69	-15.93
990.98	-24.29
991.27	-14.91
991.57	-10.40
991.86	-18.64
992.15	-18.42
992.45	-28.47
992.74	-19.32
993.03	-27.34
993.33	-20.00
993.62	-9.83
993.91	-27.91
994.20	-21.13
994.50	-28.36
994.79	-12.20
995.08	-26.89
995.37	-4.07
995.67	-32.09
995.96	-12.32
996.25	-14.58
996.54	-5.42
996.84	-21.13
997.13	-31.98
997.42	-28.70
997.71	-33.11
998.01	-16.38
998.30	-14.01
998.59	-2.71
998.88	-20.56
999.17	-18.30
999.47	-8.81
999.76	-20.68
1000.05	-27.00
1000.34	-9.60
1000.63	-39.32
1000.92	-13.67
1001.22	-11.75
1001.51	-3.28
1001.80	-22.71
1002.09	-21.36
1002.38	-23.28
1002.67	-31.75
1002.96	-37.06
1003.26	-19.10
1003.55	-24.07
1003.84	-17.97
1004.13	-22.49
1004.42	-20.34
1004.71	-44.52
1005.00	-5.88
1005.29	-7.23
1005.58	-0.11
1005.87	-20.68
1006.16	-30.17
1006.45	-15.14
1006.74	-14.91
1007.04	-11.41
1007.33	-5.88
1007.62	-36.84
1007.91	-8.36
1008.20	-18.53
1008.49	-25.31
1008.78	-26.21
1009.07	-14.91
1009.36	-27.23
1009.65	-15.71
1009.94	-21.24
1010.23	-32.43
1010.52	-19.21
1010.81	-26.55
1011.10	-25.31
1011.38	-24.75
1011.67	-35.14
1011.96	-2.37
1012.25	-12.43
1012.54	-23.62
1012.83	-30.17
1013.12	-24.18
1013.41	-30.17
1013.70	-28.25
1013.99	-31.75
1014.28	-4.29
1014.57	-38.98
1014.86	-9.49
1015.14	-17.29
1015.43	-29.60
1015.72	-16.16
1016.01	-12.99
1016.30	-14.58
1016.59	-31.07
1016.88	-17.63
1017.16	-9.04
1017.45	-18.30
1017.74	-12.54
1018.03	-29.04
1018.32	-14.91
1018.61	-24.18
1018.89	-9.83
1019.18	-23.50
1019.47	-11.53
1019.76	-20.45
1020.05	-16.50
1020.33	-17.74
1020.62	-18.30
1020.91	-1.58
1021.20	-16.84
1021.48	-23.28
1021.77	-4.18
1022.06	-25.99
1022.35	-20.00
1022.63	-20.11
1022.92	-28.81
1023.21	-0.90
1023.50	-22.03
1023.78	-36.38
1024.07	-8.93
1024.36	-6.78
1024.64	-7.91
1024.93	-27.68
1025.22	-24.29
1025.50	-17.51
1025.79	-19.21
1026.08	-19.32
1026.36	-8.02
1026.65	-26.78
1026.94	-20.90
1027.22	-35.25
1027.51	-6.21
1027.80	-2.94
1028.08	-6.44
1028.37	-24.18
1028.66	-20.90
1028.94	-30.06
>>>>>End Processed Spectral Data<<<<<
