SpectraSuite Data File
++++++++++++++++++++++++++++++++++++
Date: Thu Jun 15 11:43:56 BST 2017
User: Eng0000912
Dark Spectrum Present: Yes
Reference Spectrum Present: No
Number of Sampled Component Spectra: 1
Spectrometers: USB2+H04851
Integration Time (usec): 100000 (USB2+H04851)
Spectra Averaged: 20 (USB2+H04851)
Boxcar Smoothing: 0 (USB2+H04851)
Correct for Electrical Dark: No (USB2+H04851)
Strobe/Lamp Enabled: No (USB2+H04851)
Correct for Detector Non-linearity: No (USB2+H04851)
Correct for Stray Light: No (USB2+H04851)
Number of Pixels in Processed Spectrum: 2048
>>>>>Begin Processed Spectral Data<<<<<
340.07	-22.71
340.45	-22.71
340.82	-22.71
341.20	-46.21
341.58	-19.10
341.96	-29.38
342.34	-35.48
342.72	-30.51
343.10	-30.28
343.48	-13.11
343.85	-40.79
344.23	-20.45
344.61	-10.96
344.99	-6.67
345.37	-7.23
345.75	-32.65
346.13	-22.37
346.50	-18.87
346.88	-6.33
347.26	-31.30
347.64	-39.21
348.02	-31.75
348.40	-24.97
348.77	-20.79
349.15	-33.90
349.53	-30.06
349.91	-33.67
350.29	-9.60
350.66	-13.90
351.04	-20.79
351.42	-14.24
351.80	-29.15
352.18	-21.13
352.55	-10.85
352.93	-17.63
353.31	-34.80
353.69	-20.68
354.07	-16.84
354.44	-16.04
354.82	-22.71
355.20	-24.52
355.58	-23.39
355.95	-30.62
356.33	-43.84
356.71	-18.19
357.09	-39.10
357.46	-33.56
357.84	-24.63
358.22	-26.89
358.60	-29.15
358.97	-25.88
359.35	-10.06
359.73	-4.86
360.10	-17.74
360.48	-22.26
360.86	-38.64
361.24	-23.05
361.61	-15.25
361.99	-32.09
362.37	-47.57
362.74	-22.82
363.12	-36.84
363.50	-37.97
363.87	-30.85
364.25	-23.16
364.63	-31.75
365.01	-23.95
365.38	-46.44
365.76	-23.05
366.14	-12.20
366.51	-26.33
366.89	-24.18
367.27	-26.21
367.64	-11.64
368.02	-31.41
368.39	-19.21
368.77	-27.00
369.15	-34.91
369.52	-5.65
369.90	-39.89
370.28	-18.76
370.65	-25.08
371.03	-19.66
371.40	-21.81
371.78	-15.59
372.16	-37.06
372.53	-8.70
372.91	0.56
373.28	-23.50
373.66	-34.46
374.04	-22.71
374.41	-30.17
374.79	-32.09
375.16	-25.31
375.54	-15.03
375.92	-30.96
376.29	-28.36
376.67	-37.85
377.04	-22.82
377.42	-16.27
377.79	-27.12
378.17	-28.81
378.55	-27.23
378.92	-5.99
379.30	-28.25
379.67	-36.84
380.05	-3.95
380.42	-21.47
380.80	-7.46
381.17	-16.72
381.55	-35.37
381.92	-30.39
382.30	-34.58
382.67	-23.39
383.05	-12.88
383.42	-25.99
383.80	-41.47
384.17	-17.85
384.55	-36.04
384.92	-41.58
385.30	-35.03
385.67	-31.19
386.05	-13.33
386.42	-28.02
386.80	-15.93
387.17	-16.38
387.55	-36.95
387.92	-20.23
388.30	-24.97
388.67	-21.02
389.04	-25.88
389.42	-40.68
389.79	-51.52
390.17	-25.99
390.54	-23.62
390.92	-18.64
391.29	-30.17
391.67	-4.52
392.04	-19.21
392.41	-21.13
392.79	-38.08
393.16	-28.47
393.54	-24.75
393.91	-30.28
394.28	-38.08
394.66	-28.59
395.03	-19.55
395.41	-22.82
395.78	-12.20
396.15	-18.42
396.53	-44.74
396.90	-34.46
397.28	-17.06
397.65	-13.33
398.02	-24.07
398.40	-25.76
398.77	-21.24
399.14	-22.71
399.52	-36.38
399.89	-23.28
400.26	-24.18
400.64	-28.13
401.01	-24.86
401.38	-9.72
401.76	-30.73
402.13	8.70
402.50	-20.00
402.88	-13.45
403.25	-14.58
403.62	-24.63
404.00	-19.32
404.37	-29.38
404.74	-26.67
405.12	-38.42
405.49	-23.05
405.86	-24.07
406.23	-26.10
406.61	-9.94
406.98	-33.56
407.35	-32.99
407.73	-36.27
408.10	-10.73
408.47	-29.60
408.84	-17.97
409.22	-20.11
409.59	-19.21
409.96	-20.23
410.33	-41.58
410.71	-14.12
411.08	-14.91
411.45	-14.46
411.82	-30.06
412.20	-28.02
412.57	-24.18
412.94	-12.88
413.31	-27.57
413.68	-4.07
414.06	-36.72
414.43	-52.99
414.80	-37.97
415.17	-9.83
415.55	-30.73
415.92	-24.75
416.29	-22.26
416.66	-27.23
417.03	-16.27
417.40	-12.66
417.78	-25.88
418.15	-18.64
418.52	-4.75
418.89	-4.86
419.26	-28.81
419.63	-25.65
420.01	-21.81
420.38	-29.38
420.75	-25.88
421.12	-10.62
421.49	-35.48
421.86	-4.18
422.23	-17.40
422.61	-2.94
422.98	-20.23
423.35	-30.62
423.72	-20.11
424.09	-48.81
424.46	-9.15
424.83	-44.41
425.20	-37.85
425.58	-15.25
425.95	-15.82
426.32	-29.15
426.69	-21.36
427.06	-20.34
427.43	-25.65
427.80	-10.06
428.17	-21.13
428.54	-19.77
428.91	-22.71
429.28	-19.66
429.65	-31.86
430.02	-21.36
430.40	-7.80
430.77	-6.78
431.14	-28.02
431.51	-28.81
431.88	-4.29
432.25	-28.81
432.62	-30.28
432.99	-30.06
433.36	-28.47
433.73	-47.23
434.10	-16.16
434.47	-20.00
434.84	-16.27
435.21	-23.95
435.58	-10.40
435.95	-18.53
436.32	-33.33
436.69	-27.57
437.06	-18.19
437.43	-28.13
437.80	-34.69
438.17	-25.54
438.54	-17.97
438.91	2.49
439.28	-19.43
439.65	-38.76
440.02	-7.23
440.39	-27.12
440.76	-24.52
441.13	-15.82
441.49	-7.91
441.86	-21.24
442.23	-29.60
442.60	-24.86
442.97	-2.37
443.34	-24.63
443.71	-36.72
444.08	-46.67
444.45	-15.48
444.82	-24.86
445.19	-19.66
445.56	-32.43
445.93	-27.34
446.29	-31.41
446.66	-51.75
447.03	-30.51
447.40	-32.09
447.77	-19.21
448.14	-26.78
448.51	-28.25
448.88	-8.70
449.24	-13.90
449.61	-21.47
449.98	-10.28
450.35	-28.36
450.72	-25.42
451.09	-9.72
451.46	-11.98
451.82	-17.74
452.19	-22.03
452.56	-27.23
452.93	-26.21
453.30	-18.42
453.67	-10.40
454.03	-36.04
454.40	-30.73
454.77	-13.45
455.14	-27.80
455.51	-18.08
455.87	-36.84
456.24	-5.54
456.61	-9.94
456.98	-32.20
457.35	-20.23
457.71	-23.95
458.08	-30.51
458.45	-1.69
458.82	-12.66
459.19	-20.56
459.55	-14.46
459.92	-24.29
460.29	-11.07
460.66	-12.54
461.02	-19.21
461.39	-23.73
461.76	-27.00
462.13	-18.76
462.49	-11.30
462.86	-26.55
463.23	-29.38
463.59	-33.33
463.96	-25.20
464.33	-31.19
464.70	-26.44
465.06	-12.66
465.43	-8.70
465.80	-32.54
466.16	-23.05
466.53	-29.83
466.90	-8.59
467.26	-35.59
467.63	-8.81
468.00	-36.27
468.36	-17.74
468.73	-14.58
469.10	-38.64
469.46	-14.91
469.83	-14.69
470.20	-27.00
470.56	-15.03
470.93	-32.20
471.30	-17.06
471.66	-23.84
472.03	-2.15
472.40	-19.21
472.76	-12.20
473.13	-27.12
473.50	-36.38
473.86	-12.66
474.23	-35.48
474.59	-41.81
474.96	-43.39
475.33	-22.82
475.69	-19.89
476.06	-41.92
476.42	-26.78
476.79	-11.30
477.16	-11.53
477.52	-5.76
477.89	-21.24
478.25	9.04
478.62	-18.08
478.98	-18.08
479.35	-9.60
479.72	-29.04
480.08	-2.82
480.45	-22.82
480.81	-17.97
481.18	-43.95
481.54	-34.80
481.91	-28.93
482.27	-21.92
482.64	-21.81
483.00	-11.64
483.37	-26.21
483.73	-29.94
484.10	-23.28
484.46	-26.21
484.83	-6.55
485.19	-20.23
485.56	-22.60
485.92	-13.67
486.29	-23.28
486.65	-23.84
487.02	-28.70
487.38	-17.74
487.75	-16.27
488.11	-17.74
488.48	-35.59
488.84	-18.42
489.21	-18.08
489.57	-47.91
489.94	-35.25
490.30	-6.67
490.66	-10.40
491.03	-24.29
491.39	-7.01
491.76	-27.91
492.12	-16.84
492.49	-24.52
492.85	-21.02
493.21	-28.59
493.58	-12.66
493.94	8.02
494.31	-28.93
494.67	-22.60
495.03	-22.71
495.40	-16.04
495.76	-32.43
496.13	-5.76
496.49	-14.80
496.85	-22.60
497.22	-7.12
497.58	-16.04
497.94	-20.79
498.31	-0.68
498.67	-37.85
499.04	-25.08
499.40	-3.95
499.76	-25.76
500.13	-27.34
500.49	-24.29
500.85	-35.48
501.22	-24.41
501.58	-28.47
501.94	-10.85
502.31	-21.02
502.67	-9.49
503.03	-32.54
503.40	-16.84
503.76	-18.30
504.12	-16.72
504.48	-20.79
504.85	-13.56
505.21	-24.29
505.57	-33.67
505.94	-18.98
506.30	-30.85
506.66	-37.29
507.02	-31.30
507.39	-27.57
507.75	-37.74
508.11	-16.27
508.47	-25.65
508.84	-18.19
509.20	-21.47
509.56	-23.16
509.92	-32.09
510.29	-9.38
510.65	-29.94
511.01	-32.20
511.37	-40.90
511.74	-10.96
512.10	-20.45
512.46	-7.46
512.82	-12.43
513.18	-27.46
513.55	-13.78
513.91	-15.93
514.27	-27.57
514.63	-27.57
514.99	-26.55
515.35	-17.29
515.72	-24.18
516.08	-41.13
516.44	-28.70
516.80	-12.77
517.16	-41.35
517.52	-20.34
517.89	-22.94
518.25	-30.62
518.61	-23.28
518.97	-23.73
519.33	-34.35
519.69	6.21
520.05	-35.82
520.42	-32.88
520.78	-37.74
521.14	-34.46
521.50	-22.71
521.86	-37.63
522.22	-11.98
522.58	-23.50
522.94	-27.91
523.30	-19.89
523.67	-10.17
524.03	-46.33
524.39	-26.89
524.75	-27.00
525.11	-20.90
525.47	-16.61
525.83	-29.94
526.19	-20.56
526.55	-13.33
526.91	-10.40
527.27	-25.88
527.63	-20.45
527.99	-12.99
528.35	-16.61
528.71	-25.76
529.07	-19.43
529.43	-12.43
529.79	-24.18
530.15	-12.99
530.51	-20.90
530.87	-19.66
531.23	-14.35
531.59	-12.77
531.95	-26.89
532.31	-37.17
532.67	-44.29
533.03	-34.01
533.39	-30.96
533.75	-23.50
534.11	-28.70
534.47	-7.46
534.83	-17.40
535.19	-7.68
535.55	-8.25
535.91	-31.07
536.27	-25.42
536.63	-27.57
536.99	-20.11
537.35	-35.37
537.71	-28.02
538.07	-26.21
538.43	-21.02
538.79	-43.73
539.15	-24.07
539.51	-34.12
539.86	-8.70
540.22	-30.39
540.58	-31.52
540.94	-31.19
541.30	-26.78
541.66	-34.01
542.02	1.13
542.38	-38.08
542.74	-21.24
543.09	-21.69
543.45	-10.62
543.81	-8.81
544.17	-17.06
544.53	-10.06
544.89	-24.86
545.25	-2.03
545.60	-20.68
545.96	-23.73
546.32	-21.02
546.68	-19.21
547.04	-29.04
547.40	-27.57
547.75	-24.63
548.11	-26.44
548.47	-26.33
548.83	-20.45
549.19	-17.17
549.55	-22.49
549.90	-36.04
550.26	-21.92
550.62	-11.98
550.98	-24.75
551.34	-26.33
551.69	-23.62
552.05	-16.04
552.41	-47.34
552.77	-24.75
553.12	-48.36
553.48	-19.10
553.84	-44.97
554.20	-23.28
554.55	-24.86
554.91	-9.27
555.27	-38.64
555.63	-7.46
555.98	-10.06
556.34	-32.32
556.70	-8.93
557.05	-19.89
557.41	-31.30
557.77	-33.78
558.13	-23.62
558.48	-12.43
558.84	-24.86
559.20	-24.41
559.55	-21.69
559.91	-22.94
560.27	-27.23
560.62	-28.93
560.98	-17.74
561.34	-8.70
561.69	-9.38
562.05	-27.12
562.41	-29.04
562.76	-28.25
563.12	-15.37
563.48	-6.33
563.83	-16.72
564.19	-10.51
564.55	-22.26
564.90	-27.12
565.26	-30.39
565.62	-17.85
565.97	-33.78
566.33	-21.92
566.68	-19.32
567.04	-27.68
567.40	-17.29
567.75	-26.78
568.11	-18.87
568.46	-26.10
568.82	-1.47
569.18	-22.49
569.53	4.07
569.89	-14.58
570.24	3.62
570.60	-18.76
570.95	3.50
571.31	-4.18
571.66	4.75
572.02	11.30
572.38	40.56
572.73	23.05
573.09	25.54
573.44	60.56
573.80	47.34
574.15	14.58
574.51	30.39
574.86	41.13
575.22	27.68
575.57	30.39
575.93	42.37
576.28	28.81
576.64	23.28
576.99	49.26
577.35	42.15
577.70	32.20
578.06	44.18
578.41	32.43
578.77	4.86
579.12	6.10
579.48	18.87
579.83	22.03
580.18	-0.56
580.54	0.79
580.89	12.77
581.25	-1.36
581.60	2.82
581.96	-21.36
582.31	-18.08
582.67	-8.14
583.02	-21.92
583.37	-12.99
583.73	-11.19
584.08	-6.55
584.44	-7.12
584.79	-14.46
585.14	-18.76
585.50	-19.66
585.85	-45.65
586.21	-10.96
586.56	-13.90
586.91	-32.32
587.27	-12.20
587.62	-32.32
587.97	-22.82
588.33	-13.90
588.68	-12.88
589.03	-13.67
589.39	-18.76
589.74	-1.13
590.09	-11.30
590.45	-8.47
590.80	-5.76
591.15	-20.56
591.51	-36.04
591.86	-10.17
592.21	-3.16
592.57	-19.43
592.92	-23.84
593.27	2.49
593.63	-27.91
593.98	-17.74
594.33	-30.39
594.69	-16.04
595.04	-4.41
595.39	-5.42
595.74	1.92
596.10	-17.17
596.45	-18.98
596.80	-41.92
597.15	-19.89
597.51	-5.88
597.86	-22.03
598.21	-15.03
598.56	4.07
598.92	-24.41
599.27	-23.05
599.62	13.11
599.97	-20.56
600.32	-11.30
600.68	-12.99
601.03	8.81
601.38	-35.82
601.73	10.06
602.09	-23.05
602.44	-24.41
602.79	-23.95
603.14	-5.08
603.49	-13.90
603.84	-12.88
604.20	-10.28
604.55	-8.36
604.90	-12.88
605.25	-20.79
605.60	-22.26
605.95	-36.72
606.31	-27.91
606.66	-23.39
607.01	-2.15
607.36	-32.54
607.71	-20.56
608.06	-13.22
608.41	-46.33
608.76	-20.79
609.12	-22.03
609.47	-7.34
609.82	-16.16
610.17	-15.59
610.52	-13.33
610.87	4.86
611.22	-12.99
611.57	-21.92
611.92	-13.78
612.27	-23.50
612.62	-15.37
612.98	-16.50
613.33	-29.94
613.68	-12.66
614.03	-18.76
614.38	-13.33
614.73	-18.98
615.08	-16.50
615.43	-25.88
615.78	-31.64
616.13	-42.15
616.48	-21.02
616.83	-14.12
617.18	-27.23
617.53	-18.64
617.88	-34.24
618.23	-18.98
618.58	-2.94
618.93	-9.15
619.28	6.55
619.63	-25.76
619.98	-18.19
620.33	0.90
620.68	-18.42
621.03	-20.23
621.38	-16.27
621.73	-22.71
622.08	-17.74
622.43	-15.25
622.78	-17.06
623.13	-36.72
623.48	5.76
623.82	-21.58
624.17	-27.12
624.52	-30.73
624.87	-12.77
625.22	-29.26
625.57	-10.17
625.92	-16.95
626.27	-31.41
626.62	0.68
626.97	-2.94
627.32	-16.95
627.66	-27.68
628.01	-14.46
628.36	-18.19
628.71	-25.42
629.06	-7.68
629.41	-14.58
629.76	-11.86
630.11	-17.74
630.45	-21.02
630.80	-33.22
631.15	-6.33
631.50	-24.75
631.85	-38.42
632.20	-15.82
632.54	-27.12
632.89	-22.37
633.24	0.00
633.59	-17.29
633.94	-4.97
634.29	-13.78
634.63	-6.67
634.98	-3.95
635.33	-25.42
635.68	1.69
636.02	-9.94
636.37	-38.87
636.72	-1.02
637.07	-33.11
637.42	-30.17
637.76	-22.60
638.11	-13.90
638.46	-24.41
638.81	-1.36
639.15	-12.09
639.50	-14.91
639.85	-8.81
640.20	-18.08
640.54	-20.90
640.89	-2.82
641.24	-8.47
641.58	-4.97
641.93	-12.20
642.28	-11.41
642.63	-17.29
642.97	-11.86
643.32	-5.08
643.67	-12.88
644.01	-21.58
644.36	-16.38
644.71	-23.05
645.05	-19.55
645.40	7.46
645.75	-34.69
646.09	-30.73
646.44	0.11
646.79	-18.30
647.13	-11.75
647.48	-15.48
647.83	-11.41
648.17	-18.30
648.52	-19.77
648.86	-17.40
649.21	-35.48
649.56	-9.38
649.90	-22.15
650.25	2.26
650.60	-14.91
650.94	-3.73
651.29	-6.78
651.63	-4.63
651.98	-11.75
652.33	-7.12
652.67	-20.00
653.02	-15.71
653.36	-2.82
653.71	4.18
654.05	-23.16
654.40	1.02
654.74	-18.08
655.09	-16.50
655.44	-0.68
655.78	-5.54
656.13	-10.96
656.47	-4.18
656.82	-14.80
657.16	-7.68
657.51	-15.37
657.85	-5.54
658.20	-0.68
658.54	6.78
658.89	-20.68
659.23	-11.19
659.58	10.85
659.92	5.31
660.27	-21.69
660.61	-11.41
660.96	-11.41
661.30	1.13
661.65	1.24
661.99	-6.78
662.33	-0.34
662.68	-0.68
663.02	-2.03
663.37	17.40
663.71	3.95
664.06	20.79
664.40	2.37
664.75	6.67
665.09	9.04
665.43	19.32
665.78	21.69
666.12	6.33
666.47	11.41
666.81	10.17
667.15	13.56
667.50	17.97
667.84	21.24
668.19	23.28
668.53	8.47
668.87	17.63
669.22	19.55
669.56	16.95
669.90	16.38
670.25	30.17
670.59	48.02
670.93	33.56
671.28	20.23
671.62	42.37
671.96	36.61
672.31	43.39
672.65	51.19
672.99	61.58
673.34	39.55
673.68	22.26
674.02	38.08
674.37	50.96
674.71	52.43
675.05	46.55
675.40	45.54
675.74	66.21
676.08	50.96
676.42	72.09
676.77	62.03
677.11	78.53
677.45	75.48
677.79	77.74
678.14	73.11
678.48	86.66
678.82	90.62
679.16	70.05
679.51	99.43
679.85	70.05
680.19	73.67
680.53	75.48
680.88	107.34
681.22	85.76
681.56	101.47
681.90	106.10
682.24	95.59
682.59	114.12
682.93	131.18
683.27	114.80
683.61	128.81
683.95	102.37
684.29	109.15
684.64	127.79
684.98	138.41
685.32	127.79
685.66	136.04
686.00	153.78
686.34	130.28
686.69	149.37
687.03	139.09
687.37	152.65
687.71	181.13
688.05	158.75
688.39	174.23
688.73	181.92
689.07	172.31
689.41	193.33
689.76	180.22
690.10	190.28
690.44	192.09
690.78	205.19
691.12	190.39
691.46	202.71
691.80	240.67
692.14	232.65
692.48	247.79
692.82	249.15
693.16	258.30
693.50	259.32
693.84	265.19
694.18	265.98
694.53	291.40
694.87	298.30
695.21	303.27
695.55	304.06
695.89	310.61
696.23	349.14
696.57	348.01
696.91	354.11
697.25	351.40
697.59	363.27
697.93	393.32
698.27	391.63
698.61	374.57
698.95	406.20
699.29	427.33
699.63	407.33
699.97	435.13
700.30	442.81
700.64	481.57
700.98	490.16
701.32	464.06
701.66	500.33
702.00	518.52
702.34	511.29
702.68	541.68
703.02	578.97
703.36	588.23
703.70	600.66
704.04	604.16
704.38	618.74
704.72	632.75
705.05	659.30
705.39	664.28
705.73	688.68
706.07	690.04
706.41	716.48
706.75	749.47
707.09	751.73
707.43	771.96
707.77	773.20
708.10	817.15
708.44	826.53
708.78	855.46
709.12	858.73
709.46	898.06
709.80	910.15
710.13	954.55
710.47	957.38
710.81	965.74
711.15	1002.80
711.49	1040.54
711.82	1060.76
712.16	1081.10
712.50	1089.24
712.84	1140.20
713.18	1141.21
713.51	1198.39
713.85	1210.25
714.19	1210.59
714.53	1264.26
714.87	1283.92
715.20	1322.23
715.54	1333.19
715.88	1392.84
716.22	1417.48
716.55	1455.44
716.89	1477.59
717.23	1528.21
717.57	1554.42
717.90	1604.93
718.24	1628.88
718.58	1665.27
718.91	1694.31
719.25	1747.86
719.59	1789.78
719.93	1843.45
720.26	1869.56
720.60	1920.29
720.94	1940.97
721.27	2028.76
721.61	2063.00
721.95	2105.48
722.28	2160.17
722.62	2220.96
722.96	2258.36
723.29	2310.33
723.63	2347.96
723.97	2407.85
724.30	2453.38
724.64	2530.67
724.97	2607.95
725.31	2649.53
725.65	2750.55
725.98	2793.71
726.32	2838.00
726.66	2953.03
726.99	3016.64
727.33	3082.18
727.66	3167.37
728.00	3233.81
728.33	3347.82
728.67	3419.68
729.01	3486.35
729.34	3580.24
729.68	3652.56
730.01	3748.04
730.35	3825.32
730.68	3936.62
731.02	4001.36
731.36	4109.61
731.69	4240.45
732.03	4342.37
732.36	4434.91
732.70	4500.90
733.03	4663.61
733.37	4732.53
733.70	4815.81
734.04	4980.77
734.37	5030.04
734.71	5204.72
735.04	5357.49
735.38	5474.55
735.71	5558.50
736.05	5704.03
736.38	5783.92
736.72	5901.43
737.05	6078.94
737.38	6188.09
737.72	6281.76
738.05	6453.50
738.39	6557.12
738.72	6713.38
739.06	6848.63
739.39	6953.38
739.73	7079.02
740.06	7243.54
740.39	7384.66
740.73	7546.69
741.06	7724.99
741.40	7777.08
741.73	7959.11
742.06	8121.71
742.40	8265.66
742.73	8404.30
743.07	8591.41
743.40	8742.37
743.73	8918.97
744.07	9017.73
744.40	9234.79
744.73	9390.83
745.07	9555.34
745.40	9758.50
745.73	9875.90
746.07	10113.07
746.40	10202.44
746.73	10416.11
747.07	10531.14
747.40	10740.28
747.73	10996.55
748.07	11044.46
748.40	11309.19
748.73	11455.52
749.07	11703.53
749.40	11866.58
749.73	12057.08
750.06	12114.37
750.40	12356.62
750.73	12578.31
751.06	12776.50
751.40	12930.39
751.73	13165.19
752.06	13329.03
752.39	13526.09
752.73	13730.15
753.06	13977.94
753.39	14135.33
753.72	14304.48
754.05	14478.26
754.39	14730.46
754.72	14941.19
755.05	15283.33
755.38	15332.48
755.72	15484.56
756.05	15689.42
756.38	15906.59
756.71	16148.05
757.04	16334.26
757.37	16439.79
757.71	16640.35
758.04	16783.97
758.37	17023.51
758.70	17053.56
759.03	17378.53
759.36	17584.62
759.70	17896.03
760.03	17939.30
760.36	18209.69
760.69	18455.79
761.02	18530.70
761.35	18707.98
761.68	18962.10
762.01	19053.62
762.35	19196.90
762.68	19380.96
763.01	19642.08
763.34	19712.36
763.67	19807.39
764.00	19978.57
764.33	20026.48
764.66	20078.79
764.99	20241.95
765.32	20360.82
765.65	20575.39
765.98	20822.50
766.31	20595.50
766.65	20658.33
766.98	20722.39
767.31	20843.52
767.64	21027.13
767.97	20857.30
768.30	20801.71
768.63	21007.70
768.96	20803.18
769.29	20886.57
769.62	20818.10
769.95	20875.16
770.28	20857.53
770.61	20728.04
770.94	20743.18
771.27	20838.77
771.60	20791.09
771.93	20713.24
772.26	20608.27
772.59	20560.48
772.92	20608.72
773.24	20587.59
773.57	20522.17
773.90	20284.33
774.23	20320.60
774.56	20245.00
774.89	20177.89
775.22	19925.01
775.55	19878.80
775.88	19636.77
776.21	19507.17
776.54	19303.33
776.87	19106.50
777.19	19067.07
777.52	18979.73
777.85	18716.57
778.18	18477.93
778.51	18292.29
778.84	18200.88
779.17	18111.05
779.50	17947.66
779.82	17674.22
780.15	17443.61
780.48	17189.04
780.81	17038.87
781.14	16960.23
781.47	16762.16
781.80	16415.27
782.12	16346.69
782.45	16086.58
782.78	16097.43
783.11	15717.33
783.44	15562.87
783.76	15366.94
784.09	15068.76
784.42	14922.77
784.75	14756.11
785.08	14524.48
785.40	14331.15
785.73	14105.62
786.06	13732.52
786.39	13707.21
786.71	13482.13
787.04	13377.16
787.37	13140.22
787.70	12872.99
788.02	12658.20
788.35	12409.50
788.68	12179.11
789.00	12016.52
789.33	11707.26
789.66	11556.31
789.99	11254.62
790.31	11063.55
790.64	10972.25
790.97	10740.06
791.29	10652.94
791.62	10328.54
791.95	10156.12
792.27	9944.48
792.60	9829.12
792.93	9635.34
793.25	9442.58
793.58	9318.29
793.91	9085.98
794.23	8923.16
794.56	8732.20
794.89	8536.05
795.21	8525.43
795.54	8278.09
795.87	8156.28
796.19	7941.60
796.52	7768.27
796.84	7657.31
797.17	7504.21
797.50	7342.18
797.82	7160.94
798.15	7037.67
798.47	6894.28
798.80	6711.69
799.12	6643.55
799.45	6460.51
799.78	6296.44
800.10	6179.61
800.43	6018.94
800.75	5874.08
801.08	5748.32
801.40	5560.64
801.73	5447.77
802.05	5293.53
802.38	5174.55
802.70	5086.76
803.03	4933.09
803.35	4840.55
803.68	4719.54
804.00	4583.16
804.33	4467.91
804.65	4362.82
804.98	4208.93
805.30	4078.42
805.63	3977.41
805.95	3876.06
806.28	3778.54
806.60	3616.29
806.93	3553.69
807.25	3458.21
807.58	3342.17
807.90	3262.51
808.22	3143.42
808.55	3095.51
808.87	3005.68
809.20	2906.14
809.52	2858.00
809.85	2734.84
810.17	2656.09
810.49	2535.98
810.82	2500.50
811.14	2425.92
811.47	2340.05
811.79	2262.43
812.11	2153.73
812.44	2102.32
812.76	2035.54
813.08	1952.94
813.41	1903.00
813.73	1861.65
814.05	1799.39
814.38	1736.68
814.70	1684.81
815.02	1638.49
815.35	1573.29
815.67	1520.07
815.99	1495.33
816.32	1443.80
816.64	1393.97
816.96	1356.80
817.29	1303.47
817.61	1274.54
817.93	1235.90
818.26	1201.21
818.58	1134.32
818.90	1102.91
819.22	1073.08
819.55	1056.13
819.87	1009.46
820.19	981.67
820.51	938.28
820.84	906.19
821.16	902.69
821.48	854.33
821.80	855.12
822.13	798.40
822.45	773.09
822.77	768.00
823.09	748.45
823.41	721.11
823.74	693.43
824.06	665.07
824.38	649.59
824.70	618.06
825.02	611.85
825.35	612.87
825.67	581.91
825.99	573.66
826.31	547.22
826.63	544.28
826.95	517.16
827.27	496.37
827.60	509.37
827.92	476.48
828.24	459.42
828.56	450.38
828.88	419.88
829.20	446.09
829.52	399.65
829.84	401.57
830.17	393.32
830.49	371.06
830.81	361.12
831.13	366.54
831.45	337.96
831.77	332.42
832.09	327.79
832.41	317.28
832.73	317.17
833.05	317.28
833.37	301.12
833.69	277.39
834.01	284.40
834.33	258.86
834.65	248.69
834.97	243.50
835.29	244.97
835.61	242.25
835.94	239.88
836.26	235.70
836.58	214.46
836.90	225.19
837.21	218.75
837.53	203.05
837.85	202.93
838.17	195.81
838.49	172.99
838.81	172.20
839.13	178.53
839.45	172.54
839.77	168.36
840.09	155.14
840.41	134.12
840.73	149.37
841.05	145.76
841.37	136.49
841.69	137.06
842.01	134.12
842.33	130.84
842.65	117.40
842.96	119.66
843.28	124.97
843.60	101.81
843.92	101.81
844.24	121.92
844.56	107.12
844.88	78.64
845.20	90.96
845.52	98.08
845.83	82.94
846.15	69.94
846.47	92.09
846.79	75.37
847.11	59.55
847.43	66.44
847.74	66.21
848.06	64.18
848.38	64.74
848.70	61.02
849.02	74.01
849.33	35.48
849.65	47.46
849.97	65.87
850.29	51.52
850.61	55.03
850.92	34.12
851.24	28.36
851.56	17.63
851.88	29.72
852.19	41.02
852.51	28.59
852.83	43.05
853.15	25.42
853.46	24.07
853.78	19.66
854.10	18.98
854.42	17.29
854.73	20.23
855.05	11.07
855.37	18.30
855.68	33.90
856.00	15.14
856.32	10.28
856.63	-15.37
856.95	7.91
857.27	1.81
857.59	11.75
857.90	3.05
858.22	5.08
858.53	16.84
858.85	18.19
859.17	14.46
859.48	-5.54
859.80	-26.55
860.12	-12.66
860.43	4.29
860.75	-3.05
861.07	9.38
861.38	-1.02
861.70	8.70
862.01	-4.86
862.33	-12.66
862.65	-3.50
862.96	0.68
863.28	-20.34
863.59	-9.27
863.91	-8.25
864.22	-8.93
864.54	-14.69
864.86	9.27
865.17	-8.25
865.49	-5.31
865.80	-16.16
866.12	-24.52
866.43	-18.87
866.75	-4.63
867.06	-3.39
867.38	-0.23
867.69	-25.31
868.01	-14.12
868.32	-15.93
868.64	-1.58
868.95	-15.37
869.27	3.16
869.58	-8.59
869.90	-8.02
870.21	-17.63
870.53	5.54
870.84	-7.12
871.15	-5.08
871.47	-3.95
871.78	6.78
872.10	-10.28
872.41	-0.68
872.73	-17.17
873.04	-20.68
873.36	-31.98
873.67	-11.19
873.98	-19.55
874.30	14.58
874.61	-30.06
874.93	-20.23
875.24	-11.19
875.55	-9.83
875.87	-12.77
876.18	-13.11
876.49	-3.39
876.81	-9.94
877.12	-20.90
877.43	-32.43
877.75	-21.36
878.06	4.07
878.37	-14.91
878.69	2.26
879.00	-9.38
879.31	-20.79
879.63	-27.23
879.94	-10.06
880.25	-28.25
880.57	-18.42
880.88	121.92
881.19	17.06
881.50	-7.80
881.82	-17.40
882.13	-32.77
882.44	-16.61
882.76	-31.41
883.07	-28.25
883.38	-18.87
883.69	-15.93
884.01	-22.71
884.32	-7.46
884.63	-44.97
884.94	-21.02
885.25	-23.39
885.57	-7.57
885.88	0.11
886.19	-15.37
886.50	-19.32
886.81	-24.07
887.13	-29.60
887.44	-16.04
887.75	-19.32
888.06	-27.23
888.37	-31.86
888.69	-35.03
889.00	-34.24
889.31	-13.22
889.62	-18.42
889.93	-22.82
890.24	-12.88
890.55	-15.82
890.87	-12.77
891.18	-13.22
891.49	-17.63
891.80	-7.80
892.11	-25.54
892.42	-16.61
892.73	-30.73
893.04	-26.33
893.35	-14.35
893.66	-13.11
893.98	-31.07
894.29	-20.90
894.60	-39.55
894.91	-37.06
895.22	-29.60
895.53	-18.19
895.84	-20.45
896.15	-36.50
896.46	-12.20
896.77	-16.61
897.08	-30.85
897.39	-33.45
897.70	-5.08
898.01	-17.63
898.32	-43.95
898.63	-27.12
898.94	-14.35
899.25	-31.30
899.56	-9.60
899.87	-11.64
900.18	-17.74
900.49	-19.66
900.80	-36.16
901.11	-41.81
901.42	-23.73
901.73	4.63
902.04	-14.24
902.35	-18.98
902.66	-59.43
902.96	-15.71
903.27	-36.04
903.58	-18.42
903.89	-16.04
904.20	-12.77
904.51	-31.75
904.82	-37.40
905.13	-37.51
905.44	-40.45
905.75	-31.52
906.05	-36.84
906.36	-33.45
906.67	-15.71
906.98	-22.26
907.29	-28.59
907.60	-21.58
907.91	-25.54
908.21	-5.08
908.52	-35.93
908.83	-25.31
909.14	-14.80
909.45	-37.63
909.75	-35.03
910.06	-8.25
910.37	-14.58
910.68	-26.10
910.99	-4.63
911.29	-4.63
911.60	-23.39
911.91	-26.55
912.22	-2.15
912.52	-34.46
912.83	-19.55
913.14	-21.36
913.45	-26.78
913.75	-20.34
914.06	-20.90
914.37	-25.88
914.68	-14.01
914.98	-24.07
915.29	-48.70
915.60	-24.75
915.91	-5.88
916.21	-25.65
916.52	-23.73
916.83	-32.43
917.13	-20.11
917.44	-9.49
917.75	-8.02
918.05	-23.84
918.36	-32.65
918.67	-23.95
918.97	-25.54
919.28	-16.50
919.59	-30.96
919.89	-42.48
920.20	-13.67
920.50	-25.54
920.81	-25.42
921.12	-38.98
921.42	-25.20
921.73	-24.07
922.03	-28.59
922.34	-40.22
922.65	-4.75
922.95	-30.85
923.26	-24.41
923.56	-37.29
923.87	-42.71
924.18	-25.31
924.48	-31.75
924.79	-22.26
925.09	-13.56
925.40	-36.27
925.70	-35.03
926.01	-19.55
926.31	-20.34
926.62	-45.31
926.92	-16.04
927.23	-53.56
927.53	-31.52
927.84	-11.53
928.14	-37.29
928.45	-17.74
928.75	-7.80
929.06	-11.30
929.36	-4.41
929.67	-3.16
929.97	-31.19
930.28	-26.55
930.58	-13.11
930.89	-27.91
931.19	-51.52
931.49	-28.36
931.80	-41.13
932.10	-9.04
932.41	-32.32
932.71	-30.06
933.01	-24.75
933.32	-24.29
933.62	-13.45
933.93	-6.78
934.23	-7.34
934.53	-27.80
934.84	-2.71
935.14	-27.80
935.45	-34.58
935.75	-36.04
936.05	-16.04
936.36	-24.29
936.66	4.41
936.96	-13.78
937.27	-24.75
937.57	-16.50
937.87	-10.96
938.18	-32.20
938.48	-19.32
938.78	-7.01
939.08	-36.16
939.39	-21.02
939.69	-1.69
939.99	-31.75
940.30	-7.68
940.60	-4.18
940.90	-17.29
941.20	-23.28
941.51	-18.53
941.81	-30.73
942.11	-32.20
942.41	-17.06
942.72	-43.28
943.02	-25.31
943.32	-26.78
943.62	-28.36
943.93	-34.12
944.23	-15.59
944.53	-35.37
944.83	-28.59
945.13	-14.80
945.44	-21.92
945.74	-13.45
946.04	-25.54
946.34	-25.76
946.64	-31.07
946.94	-8.14
947.25	-16.27
947.55	-27.80
947.85	-25.76
948.15	-30.28
948.45	-10.28
948.75	-37.74
949.05	-46.21
949.35	-23.16
949.66	-8.25
949.96	-0.56
950.26	-42.15
950.56	-17.17
950.86	-33.22
951.16	-38.76
951.46	-28.36
951.76	-28.81
952.06	-31.07
952.36	-22.94
952.66	-26.67
952.96	-21.24
953.26	-31.19
953.57	-23.73
953.87	-16.72
954.17	-13.33
954.47	-26.33
954.77	-49.83
955.07	-18.98
955.37	-22.82
955.67	-35.59
955.97	-24.41
956.27	-28.36
956.57	-34.01
956.87	-38.76
957.17	-33.90
957.47	-15.93
957.77	-2.26
958.06	-30.39
958.36	-31.41
958.66	-33.67
958.96	-21.58
959.26	-22.94
959.56	-23.62
959.86	-44.18
960.16	-19.77
960.46	-19.66
960.76	-18.64
961.06	-28.70
961.36	-30.85
961.66	-15.37
961.95	-25.88
962.25	-11.41
962.55	-30.17
962.85	-29.94
963.15	-23.95
963.45	-23.28
963.75	-23.16
964.05	-22.03
964.34	-27.80
964.64	-36.61
964.94	-42.48
965.24	-38.08
965.54	-32.99
965.83	-10.62
966.13	-13.22
966.43	-17.97
966.73	2.49
967.03	-36.61
967.32	-5.08
967.62	-3.05
967.92	-34.24
968.22	-16.50
968.52	-22.03
968.81	-24.63
969.11	-26.33
969.41	-29.83
969.71	-15.93
970.00	-17.40
970.30	-7.68
970.60	-14.69
970.90	-24.97
971.19	-23.16
971.49	-38.42
971.79	-39.77
972.08	-16.72
972.38	-44.74
972.68	-24.18
972.97	-7.01
973.27	-18.98
973.57	-11.75
973.87	-24.86
974.16	-23.62
974.46	-6.21
974.75	-31.19
975.05	-25.88
975.35	-28.93
975.64	-45.20
975.94	-34.69
976.24	-11.41
976.53	-21.02
976.83	-26.21
977.13	-17.40
977.42	-19.77
977.72	-1.81
978.01	-40.79
978.31	-19.32
978.60	-30.85
978.90	-31.07
979.20	-13.22
979.49	-38.42
979.79	-28.93
980.08	-21.69
980.38	-28.36
980.67	-28.81
980.97	-27.80
981.26	-27.00
981.56	-16.95
981.86	-3.16
982.15	-23.73
982.45	-19.32
982.74	-33.78
983.04	-24.41
983.33	-34.46
983.63	-32.43
983.92	-25.65
984.21	-31.75
984.51	-30.62
984.80	-21.47
985.10	-33.67
985.39	-44.74
985.69	-48.47
985.98	-23.39
986.28	-31.98
986.57	-24.18
986.87	-17.06
987.16	-39.32
987.45	-8.47
987.75	-2.49
988.04	-6.89
988.34	-16.27
988.63	-25.31
988.92	-29.60
989.22	-35.71
989.51	-26.44
989.80	-39.32
990.10	3.28
990.39	-36.61
990.69	-20.45
990.98	-43.39
991.27	-5.99
991.57	-27.23
991.86	-23.84
992.15	-16.04
992.45	-10.96
992.74	-32.77
993.03	-31.98
993.33	-24.86
993.62	-23.95
993.91	-21.47
994.20	-27.57
994.50	-17.97
994.79	-22.03
995.08	-29.04
995.37	-12.09
995.67	-14.01
995.96	-19.55
996.25	-5.76
996.54	0.34
996.84	-5.54
997.13	-28.36
997.42	-27.57
997.71	-22.26
998.01	-18.30
998.30	-29.49
998.59	-17.29
998.88	-15.48
999.17	-11.86
999.47	-9.83
999.76	-14.58
1000.05	-20.68
1000.34	-25.20
1000.63	-17.97
1000.92	-7.23
1001.22	-15.93
1001.51	-25.88
1001.80	-42.60
1002.09	-25.20
1002.38	-13.78
1002.67	-31.64
1002.96	-31.30
1003.26	-19.55
1003.55	-35.93
1003.84	-20.11
1004.13	-18.76
1004.42	-23.28
1004.71	-36.95
1005.00	-34.69
1005.29	-16.61
1005.58	-11.19
1005.87	-19.55
1006.16	-39.10
1006.45	-30.06
1006.74	-23.62
1007.04	-16.16
1007.33	-11.30
1007.62	-32.54
1007.91	-21.02
1008.20	-25.65
1008.49	-35.93
1008.78	-26.33
1009.07	-39.32
1009.36	-19.66
1009.65	-26.89
1009.94	-25.31
1010.23	-13.67
1010.52	-28.47
1010.81	-28.93
1011.10	-25.54
1011.38	-21.47
1011.67	-25.65
1011.96	-6.89
1012.25	-20.34
1012.54	-27.00
1012.83	-39.77
1013.12	-34.35
1013.41	-57.29
1013.70	-32.77
1013.99	-44.63
1014.28	-4.52
1014.57	-27.46
1014.86	-22.15
1015.14	-18.76
1015.43	-30.28
1015.72	-21.47
1016.01	-25.65
1016.30	-31.19
1016.59	-36.38
1016.88	-25.20
1017.16	-19.43
1017.45	-16.95
1017.74	-39.10
1018.03	-32.88
1018.32	-31.30
1018.61	-32.54
1018.89	-17.06
1019.18	-15.59
1019.47	-25.08
1019.76	-21.24
1020.05	-22.37
1020.33	-36.61
1020.62	-5.65
1020.91	-0.11
1021.20	-10.17
1021.48	-19.10
1021.77	-21.13
1022.06	-33.22
1022.35	-5.42
1022.63	-16.95
1022.92	-28.59
1023.21	1.58
1023.50	-28.02
1023.78	-29.72
1024.07	-5.31
1024.36	-20.90
1024.64	-32.09
1024.93	-32.09
1025.22	-27.12
1025.50	-19.66
1025.79	-23.84
1026.08	-32.88
1026.36	-11.75
1026.65	-25.20
1026.94	-15.25
1027.22	-36.16
1027.51	-10.85
1027.80	-11.75
1028.08	-25.08
1028.37	-36.50
1028.66	-14.91
1028.94	-32.20
>>>>>End Processed Spectral Data<<<<<
