SpectraSuite Data File
++++++++++++++++++++++++++++++++++++
Date: Thu Jun 15 11:40:56 BST 2017
User: Eng0000912
Dark Spectrum Present: Yes
Reference Spectrum Present: No
Number of Sampled Component Spectra: 1
Spectrometers: USB2+H04851
Integration Time (usec): 100000 (USB2+H04851)
Spectra Averaged: 20 (USB2+H04851)
Boxcar Smoothing: 0 (USB2+H04851)
Correct for Electrical Dark: No (USB2+H04851)
Strobe/Lamp Enabled: No (USB2+H04851)
Correct for Detector Non-linearity: No (USB2+H04851)
Correct for Stray Light: No (USB2+H04851)
Number of Pixels in Processed Spectrum: 2048
>>>>>Begin Processed Spectral Data<<<<<
340.07	-24.41
340.45	-24.41
340.82	-24.41
341.20	-23.73
341.58	-20.90
341.96	-15.37
342.34	-38.53
342.72	-21.47
343.10	-36.16
343.48	-30.73
343.85	-42.71
344.23	-33.11
344.61	-10.62
344.99	-25.54
345.37	-4.07
345.75	-28.02
346.13	-46.78
346.50	-21.92
346.88	-25.31
347.26	-27.34
347.64	-38.64
348.02	-20.11
348.40	-17.63
348.77	-15.82
349.15	-30.06
349.53	-18.98
349.91	-21.13
350.29	-14.46
350.66	-23.28
351.04	-11.64
351.42	-14.24
351.80	-19.10
352.18	-26.67
352.55	-11.30
352.93	-22.60
353.31	-22.71
353.69	-25.31
354.07	-14.91
354.44	-10.73
354.82	-25.08
355.20	-34.01
355.58	-8.14
355.95	-28.25
356.33	-32.20
356.71	-17.51
357.09	-40.68
357.46	-33.67
357.84	-30.17
358.22	-20.79
358.60	-41.35
358.97	-28.59
359.35	-18.08
359.73	-11.30
360.10	-21.13
360.48	-31.41
360.86	-44.86
361.24	-23.62
361.61	-16.16
361.99	-35.59
362.37	-25.42
362.74	-30.06
363.12	-23.73
363.50	-25.99
363.87	-12.32
364.25	-35.25
364.63	-32.20
365.01	-32.09
365.38	-31.86
365.76	-21.36
366.14	-29.26
366.51	-33.33
366.89	-29.49
367.27	-37.85
367.64	-15.82
368.02	-30.62
368.39	-18.87
368.77	-31.41
369.15	-37.63
369.52	-5.08
369.90	-21.36
370.28	-25.42
370.65	-16.95
371.03	-25.76
371.40	-28.02
371.78	-14.80
372.16	-28.36
372.53	-19.32
372.91	-16.38
373.28	-15.71
373.66	-39.32
374.04	-30.85
374.41	-27.57
374.79	-17.06
375.16	-30.73
375.54	-21.24
375.92	-14.46
376.29	-38.08
376.67	-13.56
377.04	-29.60
377.42	-31.07
377.79	-23.73
378.17	-33.33
378.55	-32.20
378.92	-9.49
379.30	-32.88
379.67	-29.38
380.05	-17.29
380.42	-11.75
380.80	-20.68
381.17	-35.71
381.55	-11.86
381.92	-23.73
382.30	-29.38
382.67	-23.05
383.05	-21.69
383.42	-30.39
383.80	-38.76
384.17	-4.07
384.55	-26.10
384.92	-24.41
385.30	-41.92
385.67	-28.02
386.05	-22.03
386.42	-22.94
386.80	-25.76
387.17	-30.17
387.55	-33.33
387.92	-13.45
388.30	-22.15
388.67	-0.11
389.04	-33.22
389.42	-20.34
389.79	-29.04
390.17	-20.11
390.54	-27.91
390.92	-34.58
391.29	-34.12
391.67	-5.08
392.04	-32.65
392.41	-17.51
392.79	-27.12
393.16	-21.47
393.54	-27.91
393.91	-27.80
394.28	-28.70
394.66	-33.78
395.03	-20.45
395.41	-27.57
395.78	-4.75
396.15	-17.63
396.53	-44.41
396.90	-28.93
397.28	-22.60
397.65	-21.24
398.02	-37.17
398.40	-9.15
398.77	-25.99
399.14	-17.29
399.52	-35.93
399.89	-25.20
400.26	-22.03
400.64	-26.44
401.01	-34.46
401.38	-23.16
401.76	-31.41
402.13	-9.83
402.50	-18.53
402.88	-32.99
403.25	-22.37
403.62	-28.59
404.00	-11.75
404.37	-32.99
404.74	-12.54
405.12	-40.45
405.49	-21.36
405.86	-12.88
406.23	-23.39
406.61	-0.45
406.98	-30.28
407.35	-42.48
407.73	-34.46
408.10	-7.12
408.47	-8.02
408.84	-34.35
409.22	-34.01
409.59	-7.12
409.96	-37.85
410.33	-30.51
410.71	-22.26
411.08	-8.59
411.45	-14.24
411.82	-13.90
412.20	-5.99
412.57	-8.93
412.94	-27.23
413.31	-33.78
413.68	-29.83
414.06	-26.55
414.43	-26.55
414.80	-40.68
415.17	-10.51
415.55	-21.92
415.92	-17.40
416.29	-22.82
416.66	-25.88
417.03	-19.32
417.40	-10.96
417.78	-15.03
418.15	-26.44
418.52	-14.46
418.89	-27.46
419.26	-14.35
419.63	-21.02
420.01	-20.56
420.38	-32.88
420.75	-27.34
421.12	-27.23
421.49	-17.97
421.86	-25.65
422.23	-31.52
422.61	-19.10
422.98	-21.36
423.35	-22.94
423.72	-18.30
424.09	-44.07
424.46	-6.10
424.83	-55.14
425.20	-29.94
425.58	-9.94
425.95	-16.84
426.32	-48.81
426.69	-28.47
427.06	-27.46
427.43	-23.16
427.80	-17.74
428.17	-23.05
428.54	-6.33
428.91	-20.79
429.28	-28.13
429.65	-28.59
430.02	-14.46
430.40	-17.97
430.77	-16.27
431.14	-38.08
431.51	-19.10
431.88	-16.27
432.25	-16.38
432.62	-34.80
432.99	-19.43
433.36	-23.73
433.73	-28.25
434.10	-32.77
434.47	-5.65
434.84	-27.46
435.21	-20.23
435.58	-11.19
435.95	-22.82
436.32	-13.22
436.69	-27.68
437.06	-15.03
437.43	-16.50
437.80	-38.87
438.17	-34.91
438.54	-27.46
438.91	-31.41
439.28	-20.90
439.65	-45.31
440.02	-32.88
440.39	-32.32
440.76	-25.76
441.13	-15.03
441.49	-18.19
441.86	-25.20
442.23	-26.21
442.60	-27.80
442.97	-21.69
443.34	-21.02
443.71	-24.97
444.08	-45.42
444.45	-11.53
444.82	-23.16
445.19	-10.28
445.56	-31.64
445.93	-22.94
446.29	-21.81
446.66	-32.88
447.03	-13.67
447.40	-20.90
447.77	-17.85
448.14	-6.10
448.51	-42.37
448.88	-4.86
449.24	-7.91
449.61	-38.30
449.98	-27.91
450.35	-23.73
450.72	-24.29
451.09	-19.32
451.46	-24.07
451.82	-12.66
452.19	-32.99
452.56	-20.90
452.93	-12.54
453.30	-33.33
453.67	-10.96
454.03	-46.78
454.40	-35.25
454.77	-12.99
455.14	-27.00
455.51	-19.55
455.87	-36.16
456.24	-3.16
456.61	-24.63
456.98	-31.30
457.35	-26.21
457.71	-16.27
458.08	-31.52
458.45	-24.75
458.82	-27.91
459.19	-15.59
459.55	-2.49
459.92	-14.58
460.29	-16.27
460.66	-18.42
461.02	-18.08
461.39	-23.73
461.76	-27.12
462.13	-22.94
462.49	-11.07
462.86	-21.92
463.23	-43.05
463.59	-23.73
463.96	-16.50
464.33	-14.01
464.70	-13.11
465.06	-16.84
465.43	-11.41
465.80	-22.82
466.16	-24.86
466.53	-32.43
466.90	-16.50
467.26	-31.41
467.63	-17.06
468.00	-21.47
468.36	-20.23
468.73	-23.84
469.10	-15.93
469.46	3.50
469.83	-27.91
470.20	-38.76
470.56	-17.74
470.93	-20.34
471.30	-25.99
471.66	-20.79
472.03	-4.07
472.40	-19.32
472.76	-22.03
473.13	-27.68
473.50	-35.59
473.86	-29.38
474.23	-31.41
474.59	-36.72
474.96	-31.75
475.33	-15.25
475.69	-34.24
476.06	-40.00
476.42	-4.52
476.79	-15.37
477.16	-31.19
477.52	-27.00
477.89	-28.81
478.25	-11.75
478.62	-21.69
478.98	-32.77
479.35	-14.91
479.72	-23.73
480.08	-13.33
480.45	-27.46
480.81	-26.89
481.18	-30.85
481.54	-21.92
481.91	-22.15
482.27	-16.95
482.64	-26.33
483.00	-13.56
483.37	-34.58
483.73	-38.19
484.10	-24.29
484.46	-11.41
484.83	1.47
485.19	-33.67
485.56	-4.86
485.92	-5.99
486.29	-32.20
486.65	-32.77
487.02	-19.43
487.38	-23.05
487.75	-23.73
488.11	-34.12
488.48	-14.01
488.84	-29.26
489.21	-24.75
489.57	-27.68
489.94	-43.73
490.30	-4.63
490.66	-25.20
491.03	-15.71
491.39	-5.76
491.76	-43.73
492.12	-28.47
492.49	-26.89
492.85	-18.53
493.21	-30.51
493.58	-7.46
493.94	2.37
494.31	-26.78
494.67	-16.95
495.03	-19.32
495.40	-18.53
495.76	-37.06
496.13	-19.43
496.49	-23.16
496.85	-18.76
497.22	-27.46
497.58	-35.25
497.94	-22.37
498.31	-4.75
498.67	-27.34
499.04	-15.82
499.40	-24.75
499.76	-22.94
500.13	-27.12
500.49	-1.13
500.85	-25.88
501.22	-21.13
501.58	-20.23
501.94	-17.40
502.31	-11.30
502.67	-19.21
503.03	-31.19
503.40	-20.79
503.76	-35.37
504.12	-25.54
504.48	-13.22
504.85	-19.21
505.21	-29.83
505.57	-33.67
505.94	-14.80
506.30	-24.75
506.66	-22.49
507.02	-6.55
507.39	-10.96
507.75	-31.98
508.11	-19.10
508.47	-19.10
508.84	-18.87
509.20	-30.51
509.56	-26.21
509.92	-23.84
510.29	-24.41
510.65	-24.86
511.01	-28.25
511.37	-33.78
511.74	-4.07
512.10	-19.10
512.46	-10.85
512.82	-24.97
513.18	-19.77
513.55	-16.50
513.91	-15.37
514.27	-23.73
514.63	-15.59
514.99	-14.12
515.35	-9.38
515.72	-18.19
516.08	-27.68
516.44	-35.93
516.80	-16.61
517.16	-34.35
517.52	-25.31
517.89	-25.08
518.25	-34.24
518.61	-24.63
518.97	-18.76
519.33	-11.53
519.69	-0.79
520.05	-30.85
520.42	-40.45
520.78	-40.22
521.14	-29.38
521.50	-30.51
521.86	-35.03
522.22	1.92
522.58	-21.02
522.94	-22.82
523.30	-24.63
523.67	-6.78
524.03	-49.49
524.39	-31.30
524.75	-33.22
525.11	-13.56
525.47	-12.54
525.83	-25.88
526.19	-36.61
526.55	-1.24
526.91	-19.89
527.27	-21.13
527.63	-26.33
527.99	-22.94
528.35	-20.00
528.71	-18.08
529.07	-18.30
529.43	-10.17
529.79	-40.22
530.15	-28.13
530.51	-35.93
530.87	-3.73
531.23	-8.25
531.59	-20.23
531.95	-43.61
532.31	-43.61
532.67	-41.13
533.03	-31.98
533.39	-34.24
533.75	-14.69
534.11	-41.24
534.47	-15.03
534.83	-19.66
535.19	-5.42
535.55	-21.58
535.91	-11.75
536.27	-29.38
536.63	-29.72
536.99	-23.95
537.35	-23.95
537.71	-14.46
538.07	-13.67
538.43	-18.76
538.79	-41.47
539.15	-10.73
539.51	-27.12
539.86	-7.12
540.22	-32.65
540.58	-24.29
540.94	-1.36
541.30	-24.75
541.66	-26.55
542.02	-14.69
542.38	-24.29
542.74	-6.10
543.09	-17.29
543.45	-19.32
543.81	-25.31
544.17	-16.61
544.53	-35.82
544.89	-31.64
545.25	-13.11
545.60	-20.90
545.96	-42.82
546.32	-29.94
546.68	-11.53
547.04	-34.12
547.40	-19.43
547.75	-30.06
548.11	-47.12
548.47	-21.92
548.83	-20.68
549.19	-25.54
549.55	-20.34
549.90	-16.95
550.26	-10.62
550.62	-21.02
550.98	-29.26
551.34	-11.30
551.69	-22.26
552.05	-23.84
552.41	-29.26
552.77	-31.19
553.12	-32.32
553.48	-26.78
553.84	-20.11
554.20	-28.02
554.55	-37.74
554.91	-4.97
555.27	-42.37
555.63	-11.30
555.98	-5.42
556.34	-26.21
556.70	-16.72
557.05	-14.24
557.41	-28.13
557.77	-22.94
558.13	-11.53
558.48	-27.00
558.84	-30.73
559.20	-7.34
559.55	-13.11
559.91	-29.26
560.27	-17.51
560.62	-29.38
560.98	-17.40
561.34	-21.36
561.69	-16.72
562.05	-42.26
562.41	-21.47
562.76	-26.21
563.12	-19.55
563.48	-19.55
563.83	-22.71
564.19	-27.46
564.55	-24.41
564.90	-7.91
565.26	-10.40
565.62	-23.05
565.97	-25.54
566.33	-14.01
566.68	-13.78
567.04	-19.77
567.40	-28.36
567.75	-21.69
568.11	-18.08
568.46	-15.37
568.82	-18.76
569.18	-16.72
569.53	-9.83
569.89	-37.63
570.24	-15.59
570.60	-31.07
570.95	-2.49
571.31	-12.88
571.66	11.86
572.02	9.38
572.38	10.17
572.73	41.81
573.09	24.75
573.44	67.23
573.80	30.17
574.15	22.15
574.51	30.06
574.86	35.03
575.22	46.67
575.57	18.98
575.93	27.46
576.28	39.66
576.64	19.32
576.99	50.28
577.35	40.68
577.70	27.91
578.06	19.89
578.41	23.62
578.77	16.50
579.12	-3.95
579.48	19.89
579.83	3.95
580.18	2.26
580.54	-1.92
580.89	5.88
581.25	6.33
581.60	-4.18
581.96	-31.41
582.31	-14.12
582.67	-8.70
583.02	-20.00
583.37	-25.88
583.73	-22.03
584.08	-27.91
584.44	-20.23
584.79	-15.59
585.14	-26.89
585.50	-19.77
585.85	-26.89
586.21	-25.88
586.56	-13.78
586.91	-44.52
587.27	-8.93
587.62	-22.60
587.97	-15.71
588.33	-12.88
588.68	-8.81
589.03	-20.23
589.39	-25.76
589.74	-10.51
590.09	-12.09
590.45	-12.32
590.80	-11.07
591.15	-15.03
591.51	-33.56
591.86	-8.02
592.21	-27.34
592.57	-26.55
592.92	-20.79
593.27	-13.90
593.63	-30.39
593.98	-17.40
594.33	-27.91
594.69	-20.90
595.04	-3.39
595.39	-7.46
595.74	-10.28
596.10	-14.01
596.45	-18.98
596.80	-29.83
597.15	-28.70
597.51	-27.57
597.86	-22.71
598.21	-14.69
598.56	-8.81
598.92	-35.37
599.27	-32.09
599.62	-15.03
599.97	-26.10
600.32	0.56
600.68	-11.98
601.03	-10.28
601.38	-28.70
601.73	-17.17
602.09	-32.09
602.44	-16.72
602.79	-30.62
603.14	-7.23
603.49	-14.80
603.84	-4.52
604.20	-8.25
604.55	-4.75
604.90	-18.98
605.25	-10.96
605.60	-23.39
605.95	-26.89
606.31	-28.93
606.66	-23.50
607.01	-19.77
607.36	-19.89
607.71	-2.15
608.06	-18.64
608.41	-38.98
608.76	-18.19
609.12	-22.37
609.47	-22.03
609.82	-18.53
610.17	-16.16
610.52	-16.04
610.87	-6.78
611.22	-28.13
611.57	-23.39
611.92	-24.97
612.27	-13.45
612.62	-21.13
612.98	-13.45
613.33	-21.02
613.68	-11.86
614.03	-28.81
614.38	-26.67
614.73	-18.76
615.08	-18.64
615.43	-33.33
615.78	-39.21
616.13	-23.62
616.48	-23.50
616.83	-11.75
617.18	-31.30
617.53	-21.58
617.88	-23.50
618.23	-27.46
618.58	-16.27
618.93	-24.41
619.28	-5.08
619.63	-33.11
619.98	-29.04
620.33	-16.61
620.68	-20.90
621.03	-23.84
621.38	-7.68
621.73	-27.12
622.08	-13.56
622.43	-20.68
622.78	-18.53
623.13	-34.80
623.48	-12.32
623.82	-21.81
624.17	-17.97
624.52	-46.55
624.87	-14.24
625.22	-36.50
625.57	-21.02
625.92	-19.43
626.27	-46.10
626.62	-25.65
626.97	-13.22
627.32	-16.16
627.66	-18.42
628.01	-19.89
628.36	-30.06
628.71	-29.26
629.06	-20.79
629.41	-4.29
629.76	-9.72
630.11	-18.87
630.45	-28.36
630.80	-20.23
631.15	-20.23
631.50	-17.06
631.85	-24.86
632.20	-28.36
632.54	-20.45
632.89	-24.52
633.24	-14.35
633.59	-7.34
633.94	-12.20
634.29	-28.81
634.63	-14.80
634.98	-16.50
635.33	-24.52
635.68	-17.40
636.02	-23.50
636.37	-39.89
636.72	-11.41
637.07	-17.63
637.42	-30.51
637.76	-28.47
638.11	-13.22
638.46	-15.03
638.81	4.41
639.15	-20.45
639.50	-18.76
639.85	-8.93
640.20	-16.04
640.54	-34.24
640.89	-8.25
641.24	7.57
641.58	-8.70
641.93	-11.19
642.28	-7.12
642.63	-17.06
642.97	-20.56
643.32	-2.37
643.67	-8.36
644.01	-22.49
644.36	-28.36
644.71	-24.86
645.05	-14.91
645.40	-20.56
645.75	-24.29
646.09	-34.80
646.44	-14.58
646.79	-14.58
647.13	-16.61
647.48	-10.28
647.83	-4.18
648.17	-20.56
648.52	-20.79
648.86	-19.77
649.21	-26.78
649.56	-23.28
649.90	-5.99
650.25	-18.98
650.60	-17.51
650.94	-27.34
651.29	-26.33
651.63	5.31
651.98	-12.88
652.33	-19.89
652.67	-24.63
653.02	-21.24
653.36	-6.89
653.71	-3.50
654.05	-25.99
654.40	-14.46
654.74	-12.32
655.09	-11.19
655.44	-7.01
655.78	-21.02
656.13	-2.94
656.47	-15.71
656.82	-17.85
657.16	-8.59
657.51	-22.37
657.85	-10.28
658.20	-12.99
658.54	-9.72
658.89	-4.97
659.23	-0.90
659.58	12.20
659.92	-14.58
660.27	-9.38
660.61	-15.93
660.96	-17.74
661.30	-17.17
661.65	-19.10
661.99	-7.57
662.33	5.76
662.68	-16.84
663.02	-2.82
663.37	7.34
663.71	11.86
664.06	12.54
664.40	8.02
664.75	4.63
665.09	-13.11
665.43	16.50
665.78	9.27
666.12	10.40
666.47	16.72
666.81	11.98
667.15	2.49
667.50	3.50
667.84	3.05
668.19	-3.84
668.53	9.83
668.87	4.63
669.22	17.85
669.56	11.98
669.90	10.96
670.25	11.53
670.59	17.63
670.93	28.13
671.28	29.49
671.62	35.82
671.96	16.84
672.31	21.02
672.65	30.51
672.99	32.20
673.34	34.91
673.68	16.38
674.02	48.81
674.37	32.32
674.71	35.71
675.05	13.11
675.40	26.78
675.74	33.33
676.08	46.44
676.42	66.89
676.77	45.76
677.11	50.73
677.45	53.90
677.79	50.06
678.14	52.09
678.48	70.39
678.82	61.92
679.16	60.79
679.51	66.66
679.85	55.14
680.19	71.18
680.53	62.71
680.88	63.05
681.22	62.26
681.56	88.59
681.90	85.31
682.24	83.16
682.59	95.82
682.93	100.79
683.27	98.98
683.61	107.57
683.95	80.00
684.29	84.63
684.64	97.29
684.98	112.20
685.32	105.19
685.66	116.61
686.00	134.23
686.34	88.59
686.69	122.14
687.03	115.36
687.37	126.21
687.71	144.29
688.05	143.95
688.39	128.36
688.73	151.07
689.07	137.17
689.41	140.11
689.76	140.56
690.10	140.22
690.44	161.92
690.78	167.11
691.12	162.59
691.46	168.02
691.80	194.12
692.14	197.51
692.48	204.85
692.82	196.49
693.16	217.73
693.50	213.89
693.84	226.89
694.18	239.54
694.53	244.85
694.87	247.68
695.21	232.42
695.55	257.62
695.89	250.61
696.23	260.11
696.57	269.48
696.91	290.27
697.25	280.67
697.59	304.51
697.93	310.16
698.27	324.29
698.61	307.45
698.95	323.83
699.29	343.04
699.63	343.15
699.97	343.95
700.30	367.33
700.64	380.55
700.98	384.62
701.32	404.62
701.66	420.55
702.00	416.15
702.34	430.16
702.68	425.41
703.02	476.60
703.36	466.65
703.70	484.96
704.04	479.20
704.38	495.92
704.72	518.74
705.05	537.50
705.39	560.21
705.73	556.26
706.07	574.56
706.41	577.72
706.75	583.49
707.09	635.80
707.43	666.88
707.77	644.62
708.10	655.46
708.44	680.32
708.78	697.50
709.12	716.70
709.46	746.53
709.80	734.90
710.13	784.95
710.47	792.63
710.81	806.76
711.15	828.45
711.49	839.75
711.82	878.06
712.16	897.72
712.50	906.19
712.84	948.11
713.18	935.00
713.51	978.05
713.85	1003.25
714.19	1017.49
714.53	1044.27
714.87	1076.13
715.20	1089.46
715.54	1095.90
715.88	1127.65
716.22	1176.58
716.55	1195.67
716.89	1214.09
717.23	1262.90
717.57	1271.15
717.90	1283.24
718.24	1335.90
718.58	1363.81
718.91	1376.57
719.25	1423.01
719.59	1456.46
719.93	1514.76
720.26	1529.90
720.60	1569.45
720.94	1601.88
721.27	1679.96
721.61	1682.89
721.95	1767.30
722.28	1777.24
722.62	1805.26
722.96	1877.01
723.29	1905.03
723.63	1946.05
723.97	1998.03
724.30	2030.57
724.64	2086.61
724.97	2155.76
725.31	2198.70
725.65	2255.65
725.98	2311.58
726.32	2347.62
726.66	2434.74
726.99	2500.05
727.33	2541.40
727.66	2595.52
728.00	2680.83
728.33	2752.24
728.67	2834.95
729.01	2886.14
729.34	2943.43
729.68	3031.78
730.01	3085.00
730.35	3168.28
730.68	3259.80
731.02	3326.13
731.36	3399.80
731.69	3509.74
732.03	3582.28
732.36	3679.45
732.70	3727.81
733.03	3844.42
733.37	3904.64
733.70	3998.43
734.04	4092.89
734.37	4171.75
734.71	4295.82
735.04	4418.41
735.38	4483.16
735.71	4556.60
736.05	4682.70
736.38	4759.76
736.72	4851.62
737.05	4993.32
737.38	5079.41
737.72	5196.36
738.05	5305.28
738.39	5409.91
738.72	5530.70
739.06	5622.11
739.39	5759.17
739.73	5822.45
740.06	5944.25
740.39	6058.37
740.73	6208.65
741.06	6353.05
741.40	6448.42
741.73	6551.01
742.06	6641.63
742.40	6815.64
742.73	6900.16
743.07	7034.84
743.40	7213.93
743.73	7337.21
744.07	7484.77
744.40	7583.30
744.73	7756.75
745.07	7843.52
745.40	7989.51
745.73	8139.11
746.07	8243.63
746.40	8398.99
746.73	8500.91
747.07	8681.47
747.40	8770.73
747.73	8991.74
748.07	9094.79
748.40	9274.56
748.73	9408.45
749.07	9607.88
749.40	9778.50
749.73	9906.41
750.06	9992.05
750.40	10130.69
750.73	10361.54
751.06	10493.28
751.40	10674.75
751.73	10838.81
752.06	10996.21
752.39	11139.14
752.73	11307.95
753.06	11464.78
753.39	11623.65
753.72	11713.93
754.05	11836.52
754.39	12053.13
754.72	12258.43
755.05	12455.72
755.38	12566.45
755.72	12691.30
756.05	12820.00
756.38	13021.92
756.71	13145.19
757.04	13364.85
757.37	13445.52
757.71	13653.20
758.04	13752.41
758.37	13899.63
758.70	13961.21
759.03	14255.78
759.36	14370.24
759.70	14569.90
760.03	14664.81
760.36	14886.50
760.69	15045.93
761.02	15181.30
761.35	15198.24
761.68	15415.41
762.01	15560.72
762.35	15699.70
762.68	15701.85
763.01	15980.14
763.34	16038.11
763.67	16109.86
764.00	16230.08
764.33	16326.35
764.66	16336.41
764.99	16489.85
765.32	16510.87
765.65	16686.00
765.98	16952.66
766.31	16780.24
766.65	16763.85
766.98	16791.42
767.31	16935.94
767.64	17079.21
767.97	16941.70
768.30	16923.28
768.63	17067.46
768.96	16884.30
769.29	16961.81
769.62	16903.96
769.95	16938.20
770.28	16917.18
770.61	16844.53
770.94	16914.36
771.27	16968.03
771.60	16911.19
771.93	16803.17
772.26	16802.61
772.59	16670.64
772.92	16755.38
773.24	16693.01
773.57	16659.45
773.90	16517.08
774.23	16523.75
774.56	16402.05
774.89	16398.89
775.22	16170.65
775.55	16230.99
775.88	15967.26
776.21	15860.71
776.54	15776.31
776.87	15519.93
777.19	15478.12
777.52	15417.90
777.85	15196.21
778.18	15076.21
778.51	14905.26
778.84	14791.14
779.17	14724.13
779.50	14611.25
779.82	14406.74
780.15	14247.65
780.48	14095.79
780.81	13926.19
781.14	13802.46
781.47	13680.21
781.80	13406.77
782.12	13446.31
782.45	13125.87
782.78	13185.08
783.11	12877.63
783.44	12700.34
783.76	12709.72
784.09	12366.23
784.42	12305.21
784.75	12115.73
785.08	11977.43
785.40	11771.44
785.73	11603.88
786.06	11360.49
786.39	11309.99
786.71	11058.13
787.04	11048.64
787.37	10831.01
787.70	10602.21
788.02	10515.32
788.35	10250.01
788.68	10016.46
789.00	9969.23
789.33	9699.41
789.66	9580.99
789.99	9377.04
790.31	9176.37
790.64	9076.03
790.97	8842.14
791.29	8802.48
791.62	8601.24
791.95	8435.48
792.27	8310.40
792.60	8203.51
792.93	7991.32
793.25	7815.95
793.58	7787.82
793.91	7584.55
794.23	7377.66
794.56	7239.58
794.89	7131.34
795.21	7125.80
795.54	6879.14
795.87	6768.18
796.19	6610.90
796.52	6493.05
796.84	6394.63
797.17	6241.42
797.50	6169.89
797.82	5965.72
798.15	5903.01
798.47	5765.84
798.80	5604.71
799.12	5516.80
799.45	5417.60
799.78	5263.36
800.10	5180.20
800.43	5025.97
800.75	4870.83
801.08	4792.30
801.40	4665.75
801.73	4556.15
802.05	4412.09
802.38	4347.57
802.70	4233.56
803.03	4078.99
803.35	4055.49
803.68	3963.51
804.00	3843.51
804.33	3735.16
804.65	3671.09
804.98	3533.69
805.30	3445.45
805.63	3337.20
805.95	3286.35
806.28	3143.53
806.60	3051.45
806.93	2977.10
807.25	2941.17
807.58	2803.66
807.90	2719.48
808.22	2619.25
808.55	2588.18
808.87	2513.83
809.20	2451.12
809.52	2369.66
809.85	2270.67
810.17	2205.70
810.49	2170.23
810.82	2089.66
811.14	2033.96
811.47	1949.44
811.79	1895.32
812.11	1843.00
812.44	1776.22
812.76	1713.74
813.08	1683.91
813.41	1631.82
813.73	1542.67
814.05	1530.24
814.38	1447.98
814.70	1415.44
815.02	1363.58
815.35	1331.72
815.67	1289.23
815.99	1257.93
816.32	1229.35
816.64	1156.58
816.96	1146.30
817.29	1099.41
817.61	1085.62
817.93	1038.39
818.26	1000.99
818.58	951.95
818.90	933.76
819.22	912.97
819.55	872.41
819.87	833.88
820.19	834.55
820.51	818.62
820.84	767.55
821.16	749.58
821.48	717.61
821.80	691.96
822.13	669.02
822.45	644.50
822.77	642.02
823.09	629.81
823.41	612.53
823.74	598.52
824.06	561.12
824.38	552.75
824.70	534.11
825.02	503.04
825.35	511.62
825.67	498.29
825.99	475.81
826.31	444.17
826.63	451.63
826.95	436.49
827.27	414.68
827.60	425.75
827.92	400.33
828.24	389.03
828.56	388.80
828.88	360.89
829.20	362.14
829.52	337.96
829.84	331.40
830.17	327.11
830.49	309.03
830.81	299.43
831.13	311.18
831.45	302.70
831.77	292.42
832.09	279.54
832.41	252.20
832.73	265.87
833.05	254.34
833.37	249.94
833.69	217.96
834.01	231.41
834.33	216.60
834.65	210.62
834.97	222.37
835.29	208.13
835.61	191.41
835.94	207.45
836.26	195.25
836.58	183.05
836.90	150.39
837.21	180.45
837.53	176.83
837.85	160.45
838.17	177.06
838.49	147.45
838.81	148.47
839.13	151.07
839.45	149.83
839.77	137.85
840.09	137.85
840.41	115.03
840.73	107.91
841.05	115.25
841.37	134.80
841.69	124.74
842.01	108.02
842.33	99.55
842.65	81.81
842.96	93.33
843.28	96.49
843.60	97.17
843.92	78.42
844.24	100.90
844.56	86.33
844.88	70.62
845.20	68.36
845.52	72.31
845.83	68.36
846.15	61.47
846.47	75.48
846.79	60.11
847.11	57.06
847.43	39.89
847.74	53.56
848.06	50.62
848.38	65.20
848.70	47.80
849.02	53.11
849.33	23.39
849.65	35.93
849.97	53.11
850.29	42.71
850.61	33.90
850.92	23.95
851.24	11.75
851.56	19.21
851.88	20.45
852.19	24.29
852.51	27.46
852.83	30.28
853.15	9.38
853.46	13.22
853.78	19.77
854.10	15.03
854.42	21.24
854.73	2.37
855.05	-3.16
855.37	13.90
855.68	19.43
856.00	-3.84
856.32	-9.15
856.63	-12.54
856.95	2.49
857.27	10.51
857.59	10.06
857.90	-11.19
858.22	-3.73
858.53	-5.08
858.85	1.36
859.17	-5.54
859.48	-5.54
859.80	-4.75
860.12	-7.23
860.43	-12.54
860.75	-3.05
861.07	-7.01
861.38	-11.86
861.70	-12.43
862.01	-25.08
862.33	-24.75
862.65	-13.45
862.96	-6.21
863.28	-28.59
863.59	-7.46
863.91	-3.28
864.22	-8.93
864.54	-15.03
864.86	-5.08
865.17	-23.28
865.49	-22.15
865.80	-12.20
866.12	-47.00
866.43	-14.24
866.75	-2.49
867.06	-17.97
867.38	-16.84
867.69	-15.03
868.01	-18.42
868.32	-22.37
868.64	-6.10
868.95	-19.10
869.27	-17.17
869.58	-9.38
869.90	-8.47
870.21	-13.78
870.53	-16.16
870.84	-16.38
871.15	5.65
871.47	-11.98
871.78	4.18
872.10	-9.04
872.41	-5.99
872.73	-34.58
873.04	-26.55
873.36	-28.47
873.67	-22.49
873.98	-25.31
874.30	-1.92
874.61	-22.15
874.93	-14.91
875.24	-23.95
875.55	-26.21
875.87	-11.19
876.18	-7.91
876.49	-11.41
876.81	-9.04
877.12	-27.46
877.43	-25.76
877.75	-7.80
878.06	-10.73
878.37	-21.47
878.69	-13.90
879.00	-7.80
879.31	-7.80
879.63	-15.82
879.94	-11.75
880.25	-21.02
880.57	-17.74
880.88	-23.16
881.19	-8.93
881.50	-9.72
881.82	-17.40
882.13	-29.38
882.44	-16.84
882.76	-28.47
883.07	-16.04
883.38	-19.89
883.69	-19.55
884.01	-29.49
884.32	-22.94
884.63	-34.58
884.94	-34.24
885.25	-28.93
885.57	-12.66
885.88	-1.92
886.19	-30.39
886.50	-31.30
886.81	-14.12
887.13	0.68
887.44	-15.59
887.75	-18.64
888.06	-17.85
888.37	-8.70
888.69	-28.13
889.00	-49.94
889.31	-16.72
889.62	-30.96
889.93	-39.89
890.24	-9.04
890.55	-21.36
890.87	-39.21
891.18	-2.60
891.49	-22.15
891.80	-27.23
892.11	-30.06
892.42	-20.23
892.73	-9.49
893.04	-13.67
893.35	-20.90
893.66	-19.66
893.98	-23.84
894.29	-36.16
894.60	-35.82
894.91	-6.44
895.22	-42.15
895.53	-22.82
895.84	-17.29
896.15	-33.45
896.46	-9.27
896.77	-20.90
897.08	-27.80
897.39	-35.03
897.70	-14.91
898.01	-8.93
898.32	-32.09
898.63	-26.78
898.94	-14.80
899.25	-19.43
899.56	-14.46
899.87	-9.49
900.18	-8.81
900.49	-25.31
900.80	-34.12
901.11	-37.29
901.42	-28.13
901.73	-7.12
902.04	-20.00
902.35	-31.75
902.66	-50.28
902.96	-26.78
903.27	-18.98
903.58	-18.87
903.89	-17.63
904.20	-18.53
904.51	-20.23
904.82	-20.34
905.13	-47.91
905.44	-40.11
905.75	-33.11
906.05	-17.17
906.36	-30.85
906.67	-22.82
906.98	-26.10
907.29	-18.64
907.60	-2.82
907.91	-27.34
908.21	-8.25
908.52	-29.04
908.83	-24.18
909.14	-25.08
909.45	-33.22
909.75	-24.07
910.06	-18.08
910.37	-31.98
910.68	-16.61
910.99	-25.31
911.29	-25.20
911.60	-25.99
911.91	-33.45
912.22	-32.77
912.52	-18.53
912.83	-36.38
913.14	-18.19
913.45	-29.49
913.75	-15.71
914.06	-24.52
914.37	-35.25
914.68	-9.15
914.98	-39.10
915.29	-29.83
915.60	-29.26
915.91	-18.87
916.21	-29.83
916.52	-38.42
916.83	-27.23
917.13	-32.32
917.44	-18.64
917.75	-12.32
918.05	-12.77
918.36	-25.54
918.67	-27.46
918.97	-32.88
919.28	-16.50
919.59	-32.09
919.89	-38.64
920.20	-19.21
920.50	-22.49
920.81	-31.75
921.12	-20.11
921.42	-28.02
921.73	-28.13
922.03	-43.50
922.34	-28.13
922.65	-23.28
922.95	-24.97
923.26	-25.20
923.56	-27.68
923.87	-48.36
924.18	-30.28
924.48	-20.34
924.79	-18.30
925.09	-19.10
925.40	-15.93
925.70	-39.89
926.01	-7.57
926.31	-38.87
926.62	-51.98
926.92	-13.90
927.23	-35.03
927.53	-19.21
927.84	-13.56
928.14	-43.50
928.45	-25.99
928.75	-17.85
929.06	-20.90
929.36	-6.21
929.67	-24.29
929.97	-24.18
930.28	-15.14
930.58	-25.88
930.89	-25.54
931.19	-28.93
931.49	-26.55
931.80	-37.97
932.10	-5.65
932.41	-32.09
932.71	-33.56
933.01	-23.62
933.32	1.58
933.62	-14.69
933.93	-20.34
934.23	-14.91
934.53	-15.48
934.84	-3.28
935.14	-13.33
935.45	-26.55
935.75	-22.82
936.05	-14.69
936.36	-26.21
936.66	-3.39
936.96	-35.48
937.27	-26.21
937.57	-17.63
937.87	-10.73
938.18	-20.90
938.48	-23.28
938.78	-9.04
939.08	-47.57
939.39	-8.70
939.69	-21.47
939.99	-26.55
940.30	-12.88
940.60	-21.24
940.90	-17.06
941.20	-26.67
941.51	-15.48
941.81	-28.70
942.11	-37.17
942.41	-24.29
942.72	-43.39
943.02	-22.26
943.32	-24.41
943.62	-17.06
943.93	-29.15
944.23	-17.17
944.53	-26.89
944.83	-24.97
945.13	-7.80
945.44	-17.85
945.74	-18.76
946.04	-44.74
946.34	-17.51
946.64	-33.45
946.94	-5.65
947.25	-19.77
947.55	-31.19
947.85	-13.56
948.15	-35.37
948.45	-41.92
948.75	-40.79
949.05	-26.33
949.35	-18.76
949.66	-22.82
949.96	-22.94
950.26	-43.28
950.56	-14.46
950.86	-27.57
951.16	-41.13
951.46	-25.20
951.76	-25.20
952.06	-28.02
952.36	-29.49
952.66	-22.71
952.96	-15.37
953.26	-27.80
953.57	-27.91
953.87	-32.88
954.17	-9.15
954.47	-30.06
954.77	-32.09
955.07	-14.46
955.37	-18.19
955.67	-21.81
955.97	-21.24
956.27	-27.00
956.57	-11.75
956.87	-27.00
957.17	-36.84
957.47	-18.64
957.77	-21.69
958.06	-19.21
958.36	-14.12
958.66	-20.34
958.96	-35.14
959.26	-22.26
959.56	-27.68
959.86	-26.21
960.16	-24.63
960.46	-45.20
960.76	-18.08
961.06	-28.25
961.36	-39.10
961.66	-14.01
961.95	-23.28
962.25	-18.87
962.55	-12.09
962.85	6.78
963.15	-17.97
963.45	-29.72
963.75	-27.68
964.05	-11.98
964.34	-11.98
964.64	-27.68
964.94	-42.60
965.24	-40.68
965.54	-30.39
965.83	-28.02
966.13	-18.53
966.43	-32.77
966.73	-7.12
967.03	-23.95
967.32	-12.09
967.62	-4.97
967.92	-35.93
968.22	-28.36
968.52	-34.91
968.81	-37.40
969.11	-24.07
969.41	-39.55
969.71	-12.88
970.00	-11.53
970.30	-1.47
970.60	-17.40
970.90	-33.56
971.19	-22.03
971.49	-26.55
971.79	-37.51
972.08	-26.33
972.38	-21.69
972.68	-36.04
972.97	-27.12
973.27	-19.32
973.57	-24.63
973.87	-12.88
974.16	-43.73
974.46	-34.12
974.75	-36.04
975.05	-21.92
975.35	-23.62
975.64	-39.43
975.94	-33.33
976.24	-13.78
976.53	-46.21
976.83	-14.12
977.13	-14.24
977.42	-19.55
977.72	-14.91
978.01	-44.18
978.31	-37.06
978.60	-41.69
978.90	-29.15
979.20	-24.52
979.49	-18.98
979.79	-43.16
980.08	-2.03
980.38	-20.79
980.67	-22.03
980.97	-33.45
981.26	-25.99
981.56	-18.19
981.86	-13.56
982.15	-27.91
982.45	-22.15
982.74	-23.05
983.04	-31.41
983.33	-28.59
983.63	-33.22
983.92	-34.01
984.21	-20.45
984.51	-31.52
984.80	-19.66
985.10	-45.87
985.39	-28.25
985.69	-30.17
985.98	-41.81
986.28	-28.81
986.57	-26.89
986.87	-14.58
987.16	-46.67
987.45	-26.55
987.75	-24.97
988.04	-13.78
988.34	-22.82
988.63	-28.47
988.92	-28.02
989.22	-20.34
989.51	-17.51
989.80	-32.32
990.10	-10.96
990.39	-32.88
990.69	-13.67
990.98	-38.76
991.27	-28.13
991.57	-9.60
991.86	-18.08
992.15	-20.34
992.45	-39.10
992.74	-29.04
993.03	-24.41
993.33	-18.64
993.62	-16.38
993.91	-27.57
994.20	-25.65
994.50	-30.51
994.79	-25.20
995.08	-24.41
995.37	-8.47
995.67	-38.30
995.96	-27.80
996.25	-9.83
996.54	-11.30
996.84	-13.56
997.13	-28.81
997.42	-36.27
997.71	-25.08
998.01	-10.62
998.30	-16.16
998.59	-2.82
998.88	-37.85
999.17	-10.73
999.47	-8.25
999.76	-28.36
1000.05	-26.33
1000.34	-9.94
1000.63	-21.69
1000.92	-27.00
1001.22	-21.92
1001.51	-16.61
1001.80	-17.40
1002.09	-34.46
1002.38	-24.41
1002.67	-37.17
1002.96	-22.71
1003.26	-23.05
1003.55	-26.78
1003.84	-32.43
1004.13	-19.77
1004.42	-28.59
1004.71	-49.72
1005.00	-14.58
1005.29	-19.55
1005.58	-27.00
1005.87	-30.17
1006.16	-33.33
1006.45	-23.50
1006.74	-25.88
1007.04	-16.50
1007.33	-22.03
1007.62	-54.69
1007.91	3.16
1008.20	-19.66
1008.49	-35.03
1008.78	-33.56
1009.07	-20.90
1009.36	-9.94
1009.65	-22.60
1009.94	-29.04
1010.23	-30.17
1010.52	-24.41
1010.81	-31.86
1011.10	-25.42
1011.38	-19.32
1011.67	-39.43
1011.96	-14.58
1012.25	-26.67
1012.54	-22.94
1012.83	-18.42
1013.12	-27.57
1013.41	-43.84
1013.70	-36.16
1013.99	-18.30
1014.28	-3.95
1014.57	-27.46
1014.86	-20.11
1015.14	-24.29
1015.43	-36.95
1015.72	-17.97
1016.01	-34.91
1016.30	-36.16
1016.59	-29.15
1016.88	-30.73
1017.16	-24.63
1017.45	-17.06
1017.74	-41.81
1018.03	-31.64
1018.32	-36.61
1018.61	-32.20
1018.89	-13.11
1019.18	-18.30
1019.47	-15.93
1019.76	-17.63
1020.05	-20.00
1020.33	-9.72
1020.62	-30.51
1020.91	-24.41
1021.20	-27.00
1021.48	-16.61
1021.77	-11.30
1022.06	-40.68
1022.35	-23.39
1022.63	-24.29
1022.92	-31.52
1023.21	-1.13
1023.50	-39.10
1023.78	-21.69
1024.07	-8.93
1024.36	-6.44
1024.64	-20.68
1024.93	-26.89
1025.22	-31.64
1025.50	-10.06
1025.79	-7.12
1026.08	-25.54
1026.36	-21.58
1026.65	-37.29
1026.94	-3.28
1027.22	-39.89
1027.51	-19.66
1027.80	-16.27
1028.08	-19.10
1028.37	-30.85
1028.66	-25.76
1028.94	-34.91
>>>>>End Processed Spectral Data<<<<<
