SpectraSuite Data File
++++++++++++++++++++++++++++++++++++
Date: Thu Jun 15 11:37:32 BST 2017
User: Eng0000912
Dark Spectrum Present: Yes
Reference Spectrum Present: No
Number of Sampled Component Spectra: 1
Spectrometers: USB2+H04851
Integration Time (usec): 100000 (USB2+H04851)
Spectra Averaged: 20 (USB2+H04851)
Boxcar Smoothing: 0 (USB2+H04851)
Correct for Electrical Dark: No (USB2+H04851)
Strobe/Lamp Enabled: No (USB2+H04851)
Correct for Detector Non-linearity: No (USB2+H04851)
Correct for Stray Light: No (USB2+H04851)
Number of Pixels in Processed Spectrum: 2048
>>>>>Begin Processed Spectral Data<<<<<
340.07	-2.03
340.45	-2.03
340.82	-2.03
341.20	-22.71
341.58	-17.40
341.96	-12.09
342.34	-24.75
342.72	-16.72
343.10	-18.98
343.48	-31.64
343.85	-21.92
344.23	-28.47
344.61	3.16
344.99	-13.67
345.37	-5.88
345.75	-36.27
346.13	-40.22
346.50	-21.58
346.88	-3.95
347.26	-23.16
347.64	-24.29
348.02	-21.24
348.40	-29.15
348.77	-12.09
349.15	-4.86
349.53	-32.32
349.91	-22.60
350.29	-17.17
350.66	-5.20
351.04	-22.37
351.42	-11.98
351.80	-32.99
352.18	-22.26
352.55	-10.85
352.93	-10.62
353.31	-28.02
353.69	-3.73
354.07	-23.05
354.44	-0.45
354.82	-21.58
355.20	-18.76
355.58	-19.43
355.95	-29.04
356.33	-19.55
356.71	-27.80
357.09	-36.72
357.46	-35.37
357.84	-8.36
358.22	-17.29
358.60	-31.75
358.97	-25.42
359.35	1.47
359.73	-5.42
360.10	-24.52
360.48	-12.66
360.86	-24.18
361.24	-8.25
361.61	-9.60
361.99	-22.71
362.37	-27.57
362.74	-23.39
363.12	-7.80
363.50	-32.88
363.87	-15.03
364.25	-18.98
364.63	-20.00
365.01	-26.89
365.38	-18.87
365.76	-15.59
366.14	-9.94
366.51	-29.26
366.89	-15.14
367.27	-33.45
367.64	0.90
368.02	-25.20
368.39	-18.64
368.77	-17.29
369.15	-12.88
369.52	-8.93
369.90	-22.94
370.28	-14.69
370.65	-5.88
371.03	-28.25
371.40	-25.76
371.78	-11.64
372.16	-16.84
372.53	-12.32
372.91	8.02
373.28	-6.21
373.66	-23.16
374.04	-18.64
374.41	-20.68
374.79	-24.18
375.16	-31.19
375.54	-12.99
375.92	-22.03
376.29	-31.41
376.67	-14.35
377.04	-14.01
377.42	-15.82
377.79	-19.89
378.17	-9.27
378.55	-28.02
378.92	-15.93
379.30	-43.73
379.67	-25.20
380.05	-0.34
380.42	-5.08
380.80	-8.47
381.17	-19.55
381.55	-14.01
381.92	-22.37
382.30	-30.51
382.67	-26.67
383.05	-8.59
383.42	-24.29
383.80	-37.63
384.17	2.49
384.55	-16.84
384.92	-17.85
385.30	-22.26
385.67	-6.21
386.05	-15.48
386.42	-29.83
386.80	-15.59
387.17	-17.51
387.55	-29.04
387.92	-6.10
388.30	-30.73
388.67	-34.91
389.04	-11.86
389.42	-23.95
389.79	-21.02
390.17	-14.69
390.54	-11.19
390.92	-18.87
391.29	-13.90
391.67	-18.87
392.04	-17.40
392.41	-10.73
392.79	-22.26
393.16	-7.80
393.54	-9.60
393.91	-39.21
394.28	-3.05
394.66	-21.13
395.03	-29.49
395.41	-22.94
395.78	-16.61
396.15	-8.47
396.53	-33.22
396.90	-16.27
397.28	-15.93
397.65	-22.82
398.02	-6.21
398.40	-0.90
398.77	-31.86
399.14	-34.46
399.52	-15.37
399.89	-25.31
400.26	-24.41
400.64	-23.05
401.01	-22.37
401.38	-5.65
401.76	-25.76
402.13	-6.10
402.50	10.96
402.88	-15.71
403.25	-7.46
403.62	-11.30
404.00	6.44
404.37	-24.52
404.74	-29.38
405.12	-31.64
405.49	-5.88
405.86	-11.41
406.23	-17.17
406.61	-9.15
406.98	-25.42
407.35	-26.10
407.73	-28.81
408.10	11.86
408.47	-18.64
408.84	-5.42
409.22	-13.67
409.59	-5.88
409.96	-25.31
410.33	-23.39
410.71	-1.02
411.08	-9.38
411.45	-9.38
411.82	-15.82
412.20	-17.29
412.57	-9.94
412.94	-20.79
413.31	-24.29
413.68	-25.54
414.06	-19.89
414.43	-30.96
414.80	-18.76
415.17	-5.65
415.55	-25.76
415.92	-14.46
416.29	-10.51
416.66	-26.21
417.03	-8.02
417.40	-1.92
417.78	-22.82
418.15	-25.76
418.52	-10.40
418.89	-15.03
419.26	-13.56
419.63	-17.51
420.01	-27.00
420.38	-13.56
420.75	-22.60
421.12	-21.13
421.49	-25.76
421.86	-10.40
422.23	-13.78
422.61	-16.38
422.98	-24.86
423.35	-12.20
423.72	-4.18
424.09	-25.42
424.46	-4.63
424.83	-39.10
425.20	-32.43
425.58	-11.19
425.95	-16.50
426.32	-16.72
426.69	-5.20
427.06	-26.33
427.43	-22.94
427.80	-14.80
428.17	-21.36
428.54	-14.35
428.91	-19.43
429.28	-21.58
429.65	-20.34
430.02	0.45
430.40	-18.53
430.77	-13.33
431.14	-20.56
431.51	-15.25
431.88	-12.77
432.25	-17.74
432.62	-36.38
432.99	-21.69
433.36	-25.42
433.73	-23.62
434.10	-15.25
434.47	-4.63
434.84	-10.51
435.21	-4.29
435.58	-7.46
435.95	-3.84
436.32	-28.13
436.69	-34.46
437.06	-17.17
437.43	-16.27
437.80	-22.71
438.17	-17.97
438.54	-1.13
438.91	-8.36
439.28	-2.94
439.65	-24.29
440.02	-6.55
440.39	-15.14
440.76	-17.63
441.13	-6.21
441.49	-13.67
441.86	-8.59
442.23	-16.38
442.60	-15.71
442.97	3.73
443.34	-17.51
443.71	-15.59
444.08	-44.41
444.45	0.90
444.82	-20.11
445.19	-17.40
445.56	-19.43
445.93	-12.43
446.29	-17.74
446.66	-34.46
447.03	-21.24
447.40	-6.67
447.77	-4.75
448.14	-24.97
448.51	-9.15
448.88	2.15
449.24	-2.82
449.61	-43.73
449.98	-6.33
450.35	-25.42
450.72	-27.91
451.09	-23.95
451.46	-27.57
451.82	-3.62
452.19	-15.48
452.56	-5.42
452.93	-4.86
453.30	-15.37
453.67	-10.85
454.03	-23.84
454.40	-24.97
454.77	-9.04
455.14	-28.81
455.51	-21.13
455.87	-18.98
456.24	-5.76
456.61	-21.24
456.98	-13.90
457.35	-14.24
457.71	-14.80
458.08	-18.08
458.45	-12.20
458.82	-18.42
459.19	-27.23
459.55	-10.96
459.92	-12.66
460.29	-18.19
460.66	-16.72
461.02	-15.71
461.39	-17.97
461.76	-8.70
462.13	-10.51
462.49	-11.64
462.86	-13.22
463.23	-33.45
463.59	-20.56
463.96	-10.40
464.33	-6.55
464.70	-13.45
465.06	-15.37
465.43	-8.02
465.80	-19.77
466.16	-18.76
466.53	-32.54
466.90	-4.52
467.26	-29.26
467.63	-19.89
468.00	-22.94
468.36	-25.76
468.73	-8.47
469.10	-16.27
469.46	-9.38
469.83	-19.89
470.20	-36.84
470.56	-28.93
470.93	-27.34
471.30	-22.03
471.66	-14.46
472.03	-14.12
472.40	-2.03
472.76	-17.63
473.13	-24.41
473.50	-40.45
473.86	-7.12
474.23	-21.58
474.59	-21.36
474.96	-42.82
475.33	-16.84
475.69	-20.11
476.06	-35.59
476.42	-12.32
476.79	2.94
477.16	-5.65
477.52	-16.27
477.89	-9.60
478.25	-11.07
478.62	-22.71
478.98	-10.06
479.35	0.90
479.72	-23.28
480.08	-20.68
480.45	-21.92
480.81	-20.23
481.18	-28.36
481.54	-26.78
481.91	-23.28
482.27	-20.34
482.64	-24.86
483.00	-32.20
483.37	-16.27
483.73	-25.42
484.10	-29.38
484.46	-7.01
484.83	-12.43
485.19	-31.30
485.56	-13.22
485.92	-18.19
486.29	-13.67
486.65	-10.51
487.02	-24.75
487.38	-18.42
487.75	-14.69
488.11	-22.60
488.48	-17.97
488.84	-23.28
489.21	-21.02
489.57	-43.61
489.94	-19.10
490.30	0.45
490.66	-19.89
491.03	-4.75
491.39	-10.40
491.76	-17.06
492.12	-23.39
492.49	-15.37
492.85	-24.29
493.21	-18.19
493.58	-19.55
493.94	28.13
494.31	-12.43
494.67	-39.55
495.03	-22.37
495.40	-3.28
495.76	-36.95
496.13	-3.28
496.49	-5.76
496.85	-11.75
497.22	-13.11
497.58	-19.77
497.94	-0.34
498.31	-6.33
498.67	-20.68
499.04	-6.67
499.40	-11.64
499.76	-12.20
500.13	-25.76
500.49	-20.45
500.85	-32.54
501.22	-15.82
501.58	-16.04
501.94	-14.80
502.31	0.68
502.67	-3.84
503.03	-30.51
503.40	-22.49
503.76	-22.94
504.12	-7.34
504.48	-11.19
504.85	-5.88
505.21	-22.60
505.57	-39.10
505.94	-20.34
506.30	-3.62
506.66	-6.55
507.02	-24.41
507.39	-7.68
507.75	-18.76
508.11	-14.24
508.47	-25.99
508.84	-20.34
509.20	-17.63
509.56	-12.77
509.92	-19.21
510.29	-17.97
510.65	-27.68
511.01	-19.21
511.37	-30.39
511.74	-12.09
512.10	-6.10
512.46	-3.28
512.82	-18.98
513.18	-22.60
513.55	-11.07
513.91	-15.25
514.27	-22.60
514.63	-11.64
514.99	-19.89
515.35	-10.06
515.72	-26.33
516.08	-24.75
516.44	-25.99
516.80	-6.44
517.16	-26.21
517.52	-7.68
517.89	-9.15
518.25	-27.00
518.61	-16.95
518.97	-14.01
519.33	-20.34
519.69	-1.36
520.05	-29.04
520.42	-36.84
520.78	-23.16
521.14	-23.50
521.50	-22.49
521.86	-18.30
522.22	-3.28
522.58	-11.07
522.94	-31.41
523.30	-14.46
523.67	-12.20
524.03	-23.16
524.39	-20.11
524.75	-29.15
525.11	-20.00
525.47	-9.15
525.83	-24.18
526.19	-20.68
526.55	-0.68
526.91	-4.41
527.27	-0.79
527.63	-15.14
527.99	-30.17
528.35	-12.77
528.71	-7.91
529.07	-15.59
529.43	-17.74
529.79	-35.59
530.15	-3.73
530.51	-25.76
530.87	-13.11
531.23	-2.15
531.59	-22.15
531.95	-16.04
532.31	-51.52
532.67	-30.51
533.03	-36.16
533.39	-29.04
533.75	-2.94
534.11	-19.10
534.47	8.25
534.83	-9.04
535.19	9.27
535.55	-19.43
535.91	-18.42
536.27	-23.50
536.63	-23.16
536.99	-20.23
537.35	-12.09
537.71	-13.90
538.07	-18.87
538.43	-14.46
538.79	-22.49
539.15	-10.85
539.51	-27.00
539.86	-2.15
540.22	-20.68
540.58	-34.01
540.94	-17.74
541.30	-22.94
541.66	-26.44
542.02	-19.10
542.38	-20.23
542.74	1.58
543.09	-24.18
543.45	-18.42
543.81	-17.85
544.17	-6.78
544.53	-18.87
544.89	-14.12
545.25	-7.57
545.60	-21.58
545.96	-32.88
546.32	-24.52
546.68	-0.23
547.04	-25.76
547.40	0.11
547.75	-4.41
548.11	-20.11
548.47	-12.20
548.83	-12.09
549.19	-20.79
549.55	-10.28
549.90	-27.80
550.26	-14.91
550.62	-1.69
550.98	-22.26
551.34	-14.80
551.69	-11.98
552.05	-22.82
552.41	-30.85
552.77	-41.58
553.12	-36.50
553.48	-12.99
553.84	-3.95
554.20	-9.15
554.55	-36.84
554.91	-8.36
555.27	-40.45
555.63	-7.01
555.98	-2.60
556.34	-10.62
556.70	-17.63
557.05	-14.58
557.41	-23.39
557.77	-22.49
558.13	-30.62
558.48	-16.16
558.84	-32.32
559.20	-3.95
559.55	-29.04
559.91	-7.23
560.27	-7.01
560.62	-20.68
560.98	-16.27
561.34	-0.45
561.69	-3.39
562.05	-19.66
562.41	-19.66
562.76	-20.45
563.12	-21.24
563.48	1.36
563.83	-34.80
564.19	-15.03
564.55	-16.27
564.90	-17.85
565.26	-34.35
565.62	-25.65
565.97	-18.08
566.33	-14.12
566.68	-13.33
567.04	-7.01
567.40	7.12
567.75	-16.16
568.11	-18.19
568.46	-24.86
568.82	2.03
569.18	-7.23
569.53	3.39
569.89	-3.28
570.24	1.24
570.60	-16.50
570.95	-8.14
571.31	15.25
571.66	16.16
572.02	9.27
572.38	37.85
572.73	39.77
573.09	26.55
573.44	56.27
573.80	46.10
574.15	30.51
574.51	23.73
574.86	48.59
575.22	53.56
575.57	40.00
575.93	42.94
576.28	32.32
576.64	28.70
576.99	47.12
577.35	37.85
577.70	33.33
578.06	29.26
578.41	40.56
578.77	16.61
579.12	6.33
579.48	30.17
579.83	20.11
580.18	7.46
580.54	24.41
580.89	7.91
581.25	6.89
581.60	22.15
581.96	-24.86
582.31	-11.41
582.67	-0.90
583.02	-9.94
583.37	-15.14
583.73	-23.84
584.08	0.11
584.44	-1.69
584.79	-19.55
585.14	-16.61
585.50	-16.84
585.85	-45.54
586.21	-4.75
586.56	-11.30
586.91	-18.53
587.27	-10.28
587.62	-25.54
587.97	-18.08
588.33	-13.33
588.68	-6.78
589.03	-15.14
589.39	-22.60
589.74	-9.38
590.09	-10.96
590.45	-15.25
590.80	-16.84
591.15	-5.65
591.51	-11.53
591.86	-7.46
592.21	-26.89
592.57	-24.75
592.92	-6.21
593.27	-5.42
593.63	-26.55
593.98	-29.26
594.33	-24.07
594.69	-17.40
595.04	5.88
595.39	0.11
595.74	-11.64
596.10	-7.01
596.45	-18.76
596.80	-25.54
597.15	-14.80
597.51	-12.88
597.86	-3.05
598.21	-21.58
598.56	-5.42
598.92	-18.76
599.27	-16.16
599.62	-16.72
599.97	-25.76
600.32	1.36
600.68	2.15
601.03	16.61
601.38	-31.19
601.73	0.79
602.09	-30.73
602.44	-12.32
602.79	-33.56
603.14	0.68
603.49	2.15
603.84	-7.34
604.20	-25.42
604.55	-16.72
604.90	-19.55
605.25	-15.82
605.60	-14.69
605.95	-18.42
606.31	-9.15
606.66	-15.25
607.01	-20.23
607.36	-29.60
607.71	-14.80
608.06	-12.20
608.41	-25.31
608.76	-22.49
609.12	-21.69
609.47	-18.87
609.82	-20.79
610.17	-11.75
610.52	-15.48
610.87	-9.27
611.22	-17.29
611.57	-11.86
611.92	-3.16
612.27	-9.27
612.62	-16.04
612.98	-19.77
613.33	-41.92
613.68	-2.37
614.03	-8.36
614.38	-5.65
614.73	-17.85
615.08	-8.02
615.43	-20.56
615.78	-19.10
616.13	-19.66
616.48	-25.76
616.83	-23.73
617.18	-38.30
617.53	-20.34
617.88	-31.86
618.23	-4.07
618.58	-7.01
618.93	-16.61
619.28	-6.33
619.63	-23.84
619.98	-20.79
620.33	-5.76
620.68	-15.14
621.03	-16.38
621.38	-18.30
621.73	-17.17
622.08	-12.88
622.43	-4.52
622.78	-16.61
623.13	-25.88
623.48	-7.57
623.82	-21.92
624.17	-17.85
624.52	-38.19
624.87	-17.85
625.22	-20.34
625.57	-9.94
625.92	-33.22
626.27	-12.99
626.62	-7.01
626.97	-8.59
627.32	-2.15
627.66	-28.70
628.01	-6.33
628.36	-21.47
628.71	-34.91
629.06	-16.04
629.41	-17.40
629.76	-20.11
630.11	-34.46
630.45	-16.38
630.80	-4.52
631.15	-11.64
631.50	-30.28
631.85	-27.46
632.20	-17.29
632.54	-11.30
632.89	-15.71
633.24	-7.57
633.59	-14.58
633.94	-4.97
634.29	-8.47
634.63	3.84
634.98	-7.34
635.33	-38.42
635.68	0.45
636.02	-6.33
636.37	-26.33
636.72	-5.99
637.07	-28.47
637.42	-2.60
637.76	-17.29
638.11	-11.75
638.46	-27.23
638.81	8.47
639.15	-8.47
639.50	-4.86
639.85	-3.28
640.20	-3.84
640.54	-14.69
640.89	-5.42
641.24	3.62
641.58	-8.02
641.93	-7.68
642.28	-5.54
642.63	-12.09
642.97	-21.47
643.32	-1.02
643.67	0.34
644.01	-16.38
644.36	-14.80
644.71	-5.99
645.05	-1.47
645.40	-10.73
645.75	-16.61
646.09	-34.12
646.44	-2.26
646.79	-10.73
647.13	-11.41
647.48	-1.13
647.83	-7.46
648.17	-26.33
648.52	-11.19
648.86	-22.94
649.21	-15.14
649.56	-2.15
649.90	-0.23
650.25	-1.69
650.60	0.34
650.94	-5.54
651.29	-17.17
651.63	14.80
651.98	-7.68
652.33	-7.01
652.67	-2.94
653.02	-8.59
653.36	-15.71
653.71	1.13
654.05	-9.72
654.40	-25.20
654.74	-30.96
655.09	-17.29
655.44	0.34
655.78	-12.09
656.13	0.45
656.47	-21.13
656.82	-12.88
657.16	1.24
657.51	-29.49
657.85	-9.15
658.20	1.13
658.54	-17.29
658.89	-2.49
659.23	-2.37
659.58	20.23
659.92	2.15
660.27	-12.20
660.61	-15.37
660.96	-1.69
661.30	-14.69
661.65	7.57
661.99	-10.17
662.33	16.04
662.68	-7.01
663.02	9.60
663.37	17.17
663.71	13.11
664.06	0.11
664.40	-2.94
664.75	8.14
665.09	9.72
665.43	20.00
665.78	-1.81
666.12	-4.97
666.47	10.73
666.81	-3.73
667.15	2.49
667.50	6.10
667.84	14.46
668.19	3.62
668.53	3.62
668.87	-7.01
669.22	8.59
669.56	3.84
669.90	16.27
670.25	14.24
670.59	7.80
670.93	11.64
671.28	27.23
671.62	23.50
671.96	0.56
672.31	40.22
672.65	16.38
672.99	34.24
673.34	29.15
673.68	22.37
674.02	26.21
674.37	35.71
674.71	29.15
675.05	39.77
675.40	29.49
675.74	41.81
676.08	16.16
676.42	49.72
676.77	34.24
677.11	56.27
677.45	46.55
677.79	56.72
678.14	54.80
678.48	52.65
678.82	52.88
679.16	44.41
679.51	68.02
679.85	45.54
680.19	47.00
680.53	62.94
680.88	87.68
681.22	58.87
681.56	70.28
681.90	69.04
682.24	74.24
682.59	68.36
682.93	82.26
683.27	80.56
683.61	100.11
683.95	56.27
684.29	66.66
684.64	81.24
684.98	84.18
685.32	82.03
685.66	83.27
686.00	94.46
686.34	73.44
686.69	87.68
687.03	87.57
687.37	115.36
687.71	102.14
688.05	100.34
688.39	91.52
688.73	122.48
689.07	118.30
689.41	121.92
689.76	125.19
690.10	109.04
690.44	134.80
690.78	136.49
691.12	129.04
691.46	127.79
691.80	141.92
692.14	151.52
692.48	165.19
692.82	155.93
693.16	158.19
693.50	179.20
693.84	186.21
694.18	186.66
694.53	194.01
694.87	209.26
695.21	208.92
695.55	195.59
695.89	202.71
696.23	223.50
696.57	215.59
696.91	241.69
697.25	212.76
697.59	233.78
697.93	246.55
698.27	259.32
698.61	248.24
698.95	270.16
699.29	271.29
699.63	277.39
699.97	284.85
700.30	282.14
700.64	303.72
700.98	316.83
701.32	313.33
701.66	317.28
702.00	339.65
702.34	327.00
702.68	356.83
703.02	389.37
703.36	384.40
703.70	386.66
704.04	399.09
704.38	412.42
704.72	412.08
705.05	421.12
705.39	437.16
705.73	459.31
706.07	459.76
706.41	455.02
706.75	471.17
707.09	494.90
707.43	497.84
707.77	492.64
708.10	533.43
708.44	536.82
708.78	557.39
709.12	579.31
709.46	586.20
709.80	584.73
710.13	618.18
710.47	643.15
710.81	635.24
711.15	649.02
711.49	660.43
711.82	702.24
712.16	703.03
712.50	733.88
712.84	741.56
713.18	755.46
713.51	771.28
713.85	800.54
714.19	798.17
714.53	818.17
714.87	862.69
715.20	855.91
715.54	859.41
715.88	919.18
716.22	934.10
716.55	948.56
716.89	951.05
717.23	987.32
717.57	1006.75
717.90	1045.96
718.24	1058.84
718.58	1079.86
718.91	1089.80
719.25	1128.78
719.59	1163.81
719.93	1180.87
720.26	1211.95
720.60	1254.43
720.94	1292.85
721.27	1318.27
721.61	1333.07
721.95	1376.69
722.28	1401.77
722.62	1444.71
722.96	1477.70
723.29	1500.53
723.63	1529.00
723.97	1553.97
724.30	1600.97
724.64	1661.09
724.97	1709.67
725.31	1735.10
725.65	1783.23
725.98	1818.26
726.32	1848.65
726.66	1930.46
726.99	1971.93
727.33	2033.17
727.66	2072.60
728.00	2109.10
728.33	2184.80
728.67	2238.81
729.01	2286.72
729.34	2337.11
729.68	2397.45
730.01	2430.22
730.35	2495.53
730.68	2557.45
731.02	2628.29
731.36	2687.05
731.69	2768.74
732.03	2831.68
732.36	2866.14
732.70	2926.36
733.03	3038.34
733.37	3071.44
733.70	3167.37
734.04	3236.30
734.37	3318.67
734.71	3338.90
735.04	3481.04
735.38	3527.70
735.71	3641.94
736.05	3713.46
736.38	3764.19
736.72	3827.24
737.05	3925.32
737.38	3992.55
737.72	4065.88
738.05	4178.65
738.39	4254.01
738.72	4337.17
739.06	4431.07
739.39	4519.54
739.73	4599.09
740.06	4677.84
740.39	4780.67
740.73	4881.79
741.06	4986.99
741.40	5058.29
741.73	5117.94
742.06	5237.26
742.40	5335.68
742.73	5426.75
743.07	5537.03
743.40	5670.02
743.73	5747.19
744.07	5803.80
744.40	5950.47
744.73	6097.81
745.07	6175.20
745.40	6265.60
745.73	6394.30
746.07	6523.56
746.40	6625.48
746.73	6705.59
747.07	6777.34
747.40	6882.76
747.73	7064.90
748.07	7101.85
748.40	7241.39
748.73	7327.60
749.07	7546.36
749.40	7635.51
749.73	7733.58
750.06	7801.49
750.40	7927.59
750.73	8079.90
751.06	8222.50
751.40	8341.48
751.73	8419.21
752.06	8575.48
752.39	8699.09
752.73	8811.07
753.06	8978.29
753.39	9055.58
753.72	9164.62
754.05	9263.60
754.39	9433.54
754.72	9518.73
755.05	9684.49
755.38	9764.26
755.72	9862.11
756.05	9954.99
756.38	10197.13
756.71	10281.88
757.04	10378.26
757.37	10475.88
757.71	10584.35
758.04	10630.34
758.37	10814.74
758.70	10834.29
759.03	11031.91
759.36	11125.92
759.70	11327.16
760.03	11351.11
760.36	11500.60
760.69	11675.63
761.02	11703.99
761.35	11876.07
761.68	11949.63
762.01	12035.50
762.35	12118.89
762.68	12136.74
763.01	12306.68
763.34	12459.33
763.67	12471.31
764.00	12526.90
764.33	12611.76
764.66	12613.91
764.99	12704.19
765.32	12787.46
765.65	12985.20
765.98	13071.41
766.31	12997.40
766.65	12988.25
766.98	13002.93
767.31	13109.37
767.64	13131.63
767.97	13065.87
768.30	13067.23
768.63	13138.75
768.96	13001.24
769.29	13140.33
769.62	13041.13
769.95	13142.82
770.28	13039.54
770.61	13016.72
770.94	13056.04
771.27	13077.17
771.60	13061.69
771.93	13008.13
772.26	12867.91
772.59	12849.72
772.92	12871.53
773.24	12898.98
773.57	12825.31
773.90	12723.39
774.23	12725.77
774.56	12608.93
774.89	12604.41
775.22	12466.68
775.55	12497.19
775.88	12294.14
776.21	12238.44
776.54	12119.46
776.87	11982.96
777.19	11908.84
777.52	11911.89
777.85	11660.37
778.18	11607.27
778.51	11468.74
778.84	11452.02
779.17	11375.07
779.50	11280.83
779.82	11073.16
780.15	10960.39
780.48	10834.86
780.81	10791.81
781.14	10718.02
781.47	10637.80
781.80	10411.70
782.12	10405.15
782.45	10159.28
782.78	10185.38
783.11	10021.54
783.44	9887.31
783.76	9826.30
784.09	9629.92
784.42	9553.53
784.75	9433.76
785.08	9263.60
785.40	9138.86
785.73	9056.60
786.06	8813.55
786.39	8786.77
786.71	8685.99
787.04	8566.55
787.37	8431.53
787.70	8276.17
788.02	8160.80
788.35	8005.44
788.68	7836.74
789.00	7750.08
789.33	7594.15
789.66	7503.08
789.99	7340.48
790.31	7212.58
790.64	7118.34
790.97	7005.13
791.29	6895.98
791.62	6714.85
791.95	6638.70
792.27	6534.63
792.60	6457.68
792.93	6326.39
793.25	6156.00
793.58	6123.68
793.91	5979.73
794.23	5845.50
794.56	5730.13
794.89	5650.13
795.21	5602.68
795.54	5418.84
795.87	5365.17
796.19	5208.68
796.52	5124.84
796.84	5031.73
797.17	4939.53
797.50	4859.31
797.82	4718.41
798.15	4679.31
798.47	4553.21
798.80	4465.42
799.12	4390.96
799.45	4298.53
799.78	4181.70
800.10	4096.50
800.43	3978.09
800.75	3892.33
801.08	3812.56
801.40	3728.15
801.73	3659.68
802.05	3509.74
802.38	3475.16
802.70	3409.40
803.03	3278.33
803.35	3234.15
803.68	3159.24
804.00	3047.38
804.33	3003.08
804.65	2887.83
804.98	2832.47
805.30	2727.95
805.63	2674.28
805.95	2589.08
806.28	2513.83
806.60	2420.61
806.93	2364.12
807.25	2315.42
807.58	2251.58
807.90	2200.39
808.22	2095.31
808.55	2094.18
808.87	2012.04
809.20	1933.73
809.52	1893.74
809.85	1836.11
810.17	1768.43
810.49	1725.83
810.82	1688.43
811.14	1606.62
811.47	1560.64
811.79	1529.11
812.11	1456.68
812.44	1436.23
812.76	1374.54
813.08	1335.78
813.41	1293.19
813.73	1237.82
814.05	1210.70
814.38	1182.12
814.70	1129.46
815.02	1098.39
815.35	1076.81
815.67	1007.09
815.99	1000.99
816.32	978.17
816.64	925.85
816.96	916.25
817.29	868.68
817.61	879.98
817.93	840.88
818.26	827.77
818.58	773.31
818.90	750.49
819.22	734.22
819.55	699.19
819.87	667.33
820.19	680.10
820.51	640.32
820.84	597.50
821.16	604.62
821.48	582.47
821.80	560.55
822.13	544.62
822.45	529.48
822.77	517.16
823.09	484.73
823.41	482.25
823.74	478.86
824.06	432.53
824.38	447.45
824.70	410.61
825.02	407.67
825.35	423.49
825.67	377.62
825.99	370.39
826.31	382.14
826.63	381.91
826.95	351.86
827.27	354.79
827.60	335.02
827.92	323.83
828.24	316.83
828.56	314.68
828.88	279.09
829.20	304.29
829.52	273.21
829.84	281.80
830.17	279.88
830.49	256.94
830.81	251.41
831.13	223.61
831.45	246.32
831.77	237.28
832.09	217.85
832.41	201.12
832.73	215.59
833.05	210.39
833.37	198.75
833.69	168.92
834.01	176.94
834.33	179.77
834.65	165.19
834.97	165.31
835.29	173.89
835.61	151.86
835.94	163.50
836.26	159.32
836.58	142.48
836.90	141.69
837.21	150.50
837.53	151.41
837.85	135.70
838.17	128.13
838.49	123.05
838.81	131.97
839.13	120.79
839.45	137.62
839.77	106.55
840.09	107.00
840.41	99.55
840.73	75.59
841.05	96.04
841.37	97.74
841.69	99.88
842.01	74.24
842.33	90.17
842.65	70.28
842.96	73.78
843.28	97.40
843.60	77.06
843.92	59.77
844.24	91.52
844.56	62.60
844.88	78.87
845.20	46.10
845.52	62.37
845.83	69.15
846.15	53.90
846.47	62.60
846.79	50.85
847.11	55.59
847.43	43.50
847.74	52.77
848.06	34.24
848.38	63.39
848.70	48.70
849.02	50.62
849.33	23.95
849.65	39.55
849.97	44.52
850.29	25.65
850.61	39.77
850.92	22.60
851.24	28.36
851.56	17.97
851.88	30.73
852.19	13.67
852.51	15.82
852.83	29.60
853.15	6.89
853.46	11.64
853.78	15.71
854.10	16.84
854.42	15.14
854.73	20.00
855.05	10.40
855.37	6.55
855.68	20.11
856.00	9.15
856.32	-5.65
856.63	-4.75
856.95	5.08
857.27	11.53
857.59	-3.73
857.90	-6.89
858.22	1.58
858.53	-16.16
858.85	5.88
859.17	-1.69
859.48	-1.58
859.80	0.68
860.12	-14.91
860.43	-15.48
860.75	-6.44
861.07	4.29
861.38	-15.93
861.70	-7.12
862.01	-9.83
862.33	-32.09
862.65	-4.41
862.96	-4.07
863.28	-21.58
863.59	-3.73
863.91	-4.52
864.22	-3.95
864.54	-21.47
864.86	2.60
865.17	-11.86
865.49	3.16
865.80	-5.08
866.12	-10.06
866.43	-13.67
866.75	-5.20
867.06	3.95
867.38	-17.29
867.69	-8.36
868.01	-14.01
868.32	-28.13
868.64	4.97
868.95	-12.32
869.27	-1.24
869.58	-7.57
869.90	2.03
870.21	-14.12
870.53	-15.03
870.84	-9.04
871.15	-8.25
871.47	-5.54
871.78	8.93
872.10	-3.39
872.41	-12.88
872.73	-15.37
873.04	-23.50
873.36	-24.63
873.67	-15.93
873.98	-19.43
874.30	2.26
874.61	-10.51
874.93	-10.51
875.24	-9.49
875.55	-3.50
875.87	2.60
876.18	-11.53
876.49	3.95
876.81	-16.72
877.12	-14.46
877.43	-11.41
877.75	-2.15
878.06	6.33
878.37	-27.00
878.69	-7.23
879.00	-11.64
879.31	-23.05
879.63	-12.43
879.94	-3.73
880.25	-20.11
880.57	-11.53
880.88	124.52
881.19	1.69
881.50	-7.01
881.82	-17.63
882.13	-24.52
882.44	-10.40
882.76	-16.04
883.07	-12.09
883.38	-10.40
883.69	-22.71
884.01	-35.82
884.32	-21.02
884.63	-33.22
884.94	-26.33
885.25	-30.39
885.57	5.76
885.88	-10.06
886.19	-10.85
886.50	-2.03
886.81	-13.67
887.13	-0.11
887.44	-22.03
887.75	-0.68
888.06	-18.19
888.37	-11.64
888.69	-17.74
889.00	-16.04
889.31	-20.34
889.62	-14.24
889.93	1.24
890.24	-0.68
890.55	-12.99
890.87	-17.29
891.18	1.47
891.49	-10.73
891.80	-18.64
892.11	-28.47
892.42	-18.87
892.73	-26.55
893.04	-19.55
893.35	-6.44
893.66	-26.78
893.98	-21.58
894.29	-35.25
894.60	-27.46
894.91	-13.11
895.22	-21.69
895.53	-12.20
895.84	-19.43
896.15	-12.32
896.46	-7.01
896.77	-23.62
897.08	-24.75
897.39	-26.78
897.70	-6.33
898.01	3.28
898.32	-22.71
898.63	-17.29
898.94	-4.07
899.25	-21.13
899.56	-13.33
899.87	-15.37
900.18	-11.98
900.49	-13.78
900.80	-28.47
901.11	-29.72
901.42	-31.41
901.73	-9.38
902.04	-19.32
902.35	-4.29
902.66	-36.84
902.96	-14.91
903.27	-21.81
903.58	-24.07
903.89	-8.14
904.20	-11.86
904.51	-23.95
904.82	-37.29
905.13	-18.64
905.44	-24.86
905.75	-33.45
906.05	-37.40
906.36	-18.08
906.67	-23.39
906.98	-21.58
907.29	-23.95
907.60	-2.94
907.91	5.65
908.21	-2.71
908.52	-28.02
908.83	-15.82
909.14	-13.11
909.45	-29.49
909.75	-23.84
910.06	-14.46
910.37	-11.30
910.68	-31.07
910.99	0.00
911.29	-21.69
911.60	-16.95
911.91	-32.54
912.22	-26.55
912.52	-24.86
912.83	-8.36
913.14	-22.03
913.45	-22.71
913.75	-12.99
914.06	-14.24
914.37	-20.11
914.68	-15.48
914.98	-21.47
915.29	-33.11
915.60	-23.62
915.91	-14.80
916.21	-15.93
916.52	-18.64
916.83	-24.63
917.13	-3.50
917.44	0.34
917.75	-18.42
918.05	-17.85
918.36	-17.63
918.67	-26.33
918.97	-27.34
919.28	-4.63
919.59	-13.78
919.89	-32.88
920.20	-13.11
920.50	-23.73
920.81	-38.64
921.12	-18.42
921.42	-20.68
921.73	-26.78
922.03	-40.79
922.34	-26.21
922.65	-3.50
922.95	-17.74
923.26	-30.28
923.56	-23.28
923.87	-23.62
924.18	-23.62
924.48	-13.22
924.79	-18.42
925.09	-9.15
925.40	-7.80
925.70	-25.88
926.01	-0.68
926.31	-13.90
926.62	-30.96
926.92	-18.42
927.23	-29.94
927.53	-25.31
927.84	-8.02
928.14	-26.67
928.45	-12.99
928.75	-18.19
929.06	-14.69
929.36	5.20
929.67	-26.21
929.97	-18.19
930.28	-9.04
930.58	-12.09
930.89	-19.77
931.19	-24.86
931.49	-19.89
931.80	-49.04
932.10	-7.46
932.41	-24.18
932.71	-20.23
933.01	-11.98
933.32	-7.46
933.62	-1.36
933.93	-7.34
934.23	-5.31
934.53	-25.76
934.84	-18.42
935.14	-21.36
935.45	-17.97
935.75	-17.17
936.05	-24.63
936.36	-36.16
936.66	6.55
936.96	-12.66
937.27	-25.08
937.57	-18.87
937.87	-17.85
938.18	-7.12
938.48	-22.71
938.78	-14.24
939.08	-42.15
939.39	-14.24
939.69	-9.38
939.99	-29.49
940.30	-18.87
940.60	-14.91
940.90	-26.33
941.20	-11.86
941.51	-15.14
941.81	-9.04
942.11	-29.15
942.41	-19.89
942.72	-18.19
943.02	-18.30
943.32	-20.68
943.62	-10.06
943.93	-22.03
944.23	-5.65
944.53	-21.47
944.83	-33.56
945.13	-7.80
945.44	-13.11
945.74	-16.16
946.04	-21.36
946.34	-6.67
946.64	-26.55
946.94	-1.69
947.25	-5.99
947.55	-19.21
947.85	-21.02
948.15	-21.02
948.45	-33.90
948.75	-24.75
949.05	-28.36
949.35	-21.02
949.66	-1.36
949.96	-9.15
950.26	-48.70
950.56	-11.19
950.86	-24.52
951.16	-35.82
951.46	-24.97
951.76	-18.76
952.06	-25.31
952.36	-3.73
952.66	-15.59
952.96	-4.52
953.26	-24.29
953.57	-11.75
953.87	-28.36
954.17	-15.25
954.47	-18.64
954.77	-20.79
955.07	-18.87
955.37	-17.63
955.67	-8.02
955.97	-22.71
956.27	5.08
956.57	-23.05
956.87	-25.65
957.17	-24.63
957.47	-15.14
957.77	-1.47
958.06	-23.05
958.36	-9.94
958.66	-15.71
958.96	-23.05
959.26	-18.53
959.56	-24.75
959.86	-14.12
960.16	-10.17
960.46	-24.18
960.76	-22.37
961.06	-18.87
961.36	-30.17
961.66	-9.27
961.95	-20.45
962.25	-16.04
962.55	-24.29
962.85	-9.15
963.15	-25.65
963.45	-11.75
963.75	-30.17
964.05	-18.53
964.34	7.80
964.64	-20.00
964.94	-30.17
965.24	-42.03
965.54	-13.11
965.83	-24.41
966.13	-10.28
966.43	-18.64
966.73	-12.20
967.03	-20.00
967.32	-1.24
967.62	2.49
967.92	-28.70
968.22	-11.07
968.52	-18.19
968.81	-46.78
969.11	-17.74
969.41	-16.38
969.71	-17.40
970.00	16.27
970.30	-15.71
970.60	4.97
970.90	-14.01
971.19	-9.72
971.49	-40.68
971.79	-28.93
972.08	-21.36
972.38	-24.07
972.68	-18.42
972.97	-12.99
973.27	-19.55
973.57	-14.58
973.87	-15.48
974.16	-30.96
974.46	-9.04
974.75	-12.77
975.05	-9.72
975.35	-8.02
975.64	-30.96
975.94	-19.89
976.24	-4.86
976.53	-9.04
976.83	-14.58
977.13	2.37
977.42	-0.23
977.72	-0.11
978.01	-37.74
978.31	-14.91
978.60	-40.22
978.90	-21.02
979.20	-19.10
979.49	-12.77
979.79	-17.51
980.08	-5.20
980.38	-12.20
980.67	-11.75
980.97	-20.79
981.26	-23.28
981.56	-6.89
981.86	-8.59
982.15	-22.15
982.45	-32.09
982.74	-25.31
983.04	-21.02
983.33	-23.50
983.63	-19.89
983.92	-9.72
984.21	-20.90
984.51	-36.16
984.80	-14.80
985.10	-32.32
985.39	-18.30
985.69	-11.30
985.98	-35.93
986.28	-13.78
986.57	-15.48
986.87	-9.83
987.16	-8.36
987.45	-16.27
987.75	-7.80
988.04	-3.84
988.34	-21.69
988.63	-31.52
988.92	-32.54
989.22	-19.43
989.51	-14.12
989.80	-20.34
990.10	-7.46
990.39	-32.77
990.69	-16.38
990.98	-17.51
991.27	-6.10
991.57	-10.28
991.86	-2.49
992.15	-4.29
992.45	-25.88
992.74	-8.70
993.03	-15.37
993.33	-25.65
993.62	-8.47
993.91	-12.88
994.20	-19.55
994.50	-25.42
994.79	-3.73
995.08	-25.88
995.37	-7.80
995.67	-10.40
995.96	-18.76
996.25	-16.72
996.54	-14.12
996.84	-4.18
997.13	-23.84
997.42	-29.94
997.71	-20.79
998.01	-18.64
998.30	-25.99
998.59	-10.17
998.88	-30.06
999.17	-2.94
999.47	-3.16
999.76	-18.08
1000.05	-23.05
1000.34	-10.06
1000.63	-33.22
1000.92	-15.93
1001.22	-13.22
1001.51	-22.94
1001.80	-22.37
1002.09	-13.45
1002.38	-19.66
1002.67	-20.23
1002.96	-27.00
1003.26	-12.88
1003.55	-24.29
1003.84	-24.07
1004.13	-29.15
1004.42	-9.94
1004.71	-40.11
1005.00	-12.32
1005.29	2.49
1005.58	-19.77
1005.87	-17.63
1006.16	-16.95
1006.45	-25.08
1006.74	-18.87
1007.04	-11.07
1007.33	11.41
1007.62	-24.75
1007.91	-4.63
1008.20	-36.72
1008.49	-17.74
1008.78	-26.33
1009.07	-9.94
1009.36	-20.23
1009.65	-24.86
1009.94	1.47
1010.23	-31.07
1010.52	-27.46
1010.81	-33.67
1011.10	-24.07
1011.38	-28.47
1011.67	-15.93
1011.96	-2.82
1012.25	-7.46
1012.54	-19.55
1012.83	-30.62
1013.12	-33.67
1013.41	-30.85
1013.70	-26.89
1013.99	-18.64
1014.28	3.50
1014.57	-19.10
1014.86	-20.56
1015.14	-26.78
1015.43	-23.73
1015.72	-14.35
1016.01	-16.72
1016.30	-15.37
1016.59	-18.98
1016.88	-14.35
1017.16	-17.29
1017.45	-4.07
1017.74	-31.19
1018.03	-10.40
1018.32	-12.77
1018.61	-28.25
1018.89	-13.56
1019.18	-12.43
1019.47	-3.28
1019.76	-23.84
1020.05	-16.27
1020.33	-17.29
1020.62	-25.65
1020.91	3.16
1021.20	-5.20
1021.48	-22.37
1021.77	-18.76
1022.06	-20.00
1022.35	-27.12
1022.63	-1.58
1022.92	-19.77
1023.21	3.84
1023.50	-12.43
1023.78	-19.66
1024.07	-1.02
1024.36	-11.86
1024.64	-15.59
1024.93	-24.07
1025.22	-26.55
1025.50	-28.36
1025.79	-12.88
1026.08	-29.49
1026.36	-5.42
1026.65	-27.12
1026.94	-1.47
1027.22	-31.19
1027.51	-17.97
1027.80	-12.88
1028.08	0.11
1028.37	-25.20
1028.66	-7.80
1028.94	-15.37
>>>>>End Processed Spectral Data<<<<<
