SpectraSuite Data File
++++++++++++++++++++++++++++++++++++
Date: Thu Jun 15 11:36:26 BST 2017
User: Eng0000912
Dark Spectrum Present: Yes
Reference Spectrum Present: No
Number of Sampled Component Spectra: 1
Spectrometers: USB2+H04851
Integration Time (usec): 100000 (USB2+H04851)
Spectra Averaged: 20 (USB2+H04851)
Boxcar Smoothing: 0 (USB2+H04851)
Correct for Electrical Dark: No (USB2+H04851)
Strobe/Lamp Enabled: No (USB2+H04851)
Correct for Detector Non-linearity: No (USB2+H04851)
Correct for Stray Light: No (USB2+H04851)
Number of Pixels in Processed Spectrum: 2048
>>>>>Begin Processed Spectral Data<<<<<
340.07	-11.86
340.45	-11.86
340.82	-11.86
341.20	-22.60
341.58	-13.78
341.96	-12.66
342.34	-18.19
342.72	-17.85
343.10	-22.15
343.48	-22.26
343.85	-19.89
344.23	-16.84
344.61	-4.07
344.99	-12.32
345.37	-15.59
345.75	-20.79
346.13	-17.97
346.50	-11.41
346.88	-11.41
347.26	-25.54
347.64	-30.62
348.02	-21.69
348.40	-23.16
348.77	-12.43
349.15	-14.58
349.53	-17.63
349.91	-26.33
350.29	-15.59
350.66	-7.57
351.04	-25.31
351.42	-2.82
351.80	-21.58
352.18	-7.91
352.55	-13.33
352.93	-14.80
353.31	-9.49
353.69	3.73
354.07	-26.55
354.44	-4.97
354.82	-7.34
355.20	-22.37
355.58	-14.91
355.95	-18.87
356.33	-25.31
356.71	-12.43
357.09	-20.11
357.46	-23.62
357.84	-22.03
358.22	-5.54
358.60	-25.99
358.97	-13.78
359.35	-8.59
359.73	-9.83
360.10	-4.29
360.48	-14.01
360.86	-17.40
361.24	-6.89
361.61	8.36
361.99	-16.27
362.37	-27.68
362.74	-16.38
363.12	-4.97
363.50	-27.91
363.87	-9.60
364.25	-19.89
364.63	-28.70
365.01	-24.07
365.38	-19.89
365.76	1.58
366.14	-11.30
366.51	-33.78
366.89	-17.97
367.27	-43.05
367.64	1.36
368.02	-19.55
368.39	-4.75
368.77	-23.05
369.15	-21.47
369.52	14.58
369.90	-16.61
370.28	-13.33
370.65	-5.99
371.03	-9.15
371.40	-22.49
371.78	-13.90
372.16	-17.74
372.53	-5.54
372.91	-10.62
373.28	-6.44
373.66	-29.38
374.04	-27.80
374.41	-24.75
374.79	-12.54
375.16	-18.64
375.54	-23.62
375.92	-10.17
376.29	-33.67
376.67	-18.53
377.04	2.15
377.42	-10.51
377.79	-5.20
378.17	-14.35
378.55	-7.68
378.92	-13.22
379.30	-21.36
379.67	-21.58
380.05	1.02
380.42	-0.68
380.80	-2.15
381.17	-14.12
381.55	-8.36
381.92	-14.35
382.30	-22.71
382.67	-21.36
383.05	-11.53
383.42	-15.48
383.80	-21.69
384.17	0.68
384.55	-14.69
384.92	-18.98
385.30	-17.85
385.67	-19.21
386.05	-14.01
386.42	-26.67
386.80	-13.11
387.17	-9.94
387.55	-24.29
387.92	-9.83
388.30	-7.12
388.67	-4.86
389.04	-25.99
389.42	-15.82
389.79	-19.89
390.17	-16.95
390.54	-8.14
390.92	-10.06
391.29	-7.57
391.67	-4.52
392.04	-17.97
392.41	-6.33
392.79	-10.96
393.16	-18.64
393.54	-18.19
393.91	-14.80
394.28	-18.53
394.66	-20.00
395.03	-12.43
395.41	-30.17
395.78	-0.34
396.15	-26.78
396.53	-28.25
396.90	-17.97
397.28	-17.06
397.65	-11.64
398.02	-10.28
398.40	-9.15
398.77	-7.01
399.14	-17.97
399.52	-22.82
399.89	-7.23
400.26	-10.96
400.64	-3.84
401.01	-4.41
401.38	-0.23
401.76	-15.59
402.13	3.28
402.50	2.71
402.88	-5.20
403.25	-2.26
403.62	-19.43
404.00	-11.98
404.37	-26.21
404.74	-22.03
405.12	-24.07
405.49	-7.12
405.86	-12.54
406.23	-16.61
406.61	2.26
406.98	-24.18
407.35	-38.76
407.73	-35.37
408.10	11.98
408.47	-9.04
408.84	-4.52
409.22	-25.08
409.59	-8.81
409.96	-25.54
410.33	-26.21
410.71	-8.36
411.08	-9.83
411.45	-11.07
411.82	-6.10
412.20	-9.94
412.57	-7.12
412.94	-16.27
413.31	-27.12
413.68	-14.46
414.06	-25.76
414.43	-10.85
414.80	-22.82
415.17	2.94
415.55	-13.11
415.92	-6.21
416.29	-14.24
416.66	-18.76
417.03	-16.84
417.40	-14.69
417.78	-12.66
418.15	-15.59
418.52	-23.84
418.89	-8.02
419.26	-0.45
419.63	-14.91
420.01	-19.77
420.38	-21.24
420.75	-22.03
421.12	-19.32
421.49	-12.20
421.86	-4.29
422.23	-10.62
422.61	-12.32
422.98	-4.63
423.35	-8.93
423.72	-10.17
424.09	-14.24
424.46	7.57
424.83	-38.19
425.20	-12.88
425.58	-9.49
425.95	-20.45
426.32	-27.57
426.69	-3.95
427.06	-5.54
427.43	-16.95
427.80	-19.66
428.17	-8.70
428.54	-26.55
428.91	-22.82
429.28	-10.28
429.65	-16.50
430.02	0.00
430.40	-8.25
430.77	-7.57
431.14	-22.15
431.51	-16.72
431.88	-9.94
432.25	-10.28
432.62	-18.64
432.99	-17.97
433.36	-16.72
433.73	-21.69
434.10	-16.38
434.47	-23.95
434.84	-22.26
435.21	-10.06
435.58	-8.25
435.95	-18.42
436.32	-20.23
436.69	-30.28
437.06	-7.68
437.43	-20.90
437.80	-22.26
438.17	-18.08
438.54	-17.85
438.91	-12.88
439.28	-17.85
439.65	-19.43
440.02	-0.45
440.39	-2.71
440.76	-19.89
441.13	-7.01
441.49	-5.99
441.86	-8.81
442.23	-9.15
442.60	-23.28
442.97	-8.02
443.34	-12.20
443.71	-26.67
444.08	-40.34
444.45	9.83
444.82	-19.10
445.19	-15.59
445.56	-20.23
445.93	-21.02
446.29	-22.26
446.66	-34.58
447.03	-8.14
447.40	-8.25
447.77	-13.67
448.14	-29.60
448.51	-30.85
448.88	2.94
449.24	9.27
449.61	-28.25
449.98	-19.21
450.35	-18.87
450.72	-4.86
451.09	-11.75
451.46	-14.35
451.82	7.23
452.19	-16.95
452.56	-24.63
452.93	-8.02
453.30	0.11
453.67	-5.42
454.03	-26.21
454.40	-34.01
454.77	3.39
455.14	-34.35
455.51	-25.08
455.87	-18.87
456.24	-18.53
456.61	-8.81
456.98	-18.87
457.35	-27.00
457.71	-20.45
458.08	-36.95
458.45	-4.86
458.82	-3.84
459.19	-18.87
459.55	-10.28
459.92	-20.56
460.29	0.56
460.66	-12.77
461.02	-0.90
461.39	-2.82
461.76	-14.46
462.13	-13.78
462.49	0.34
462.86	-0.45
463.23	-27.00
463.59	-10.17
463.96	-9.72
464.33	5.31
464.70	0.79
465.06	-5.65
465.43	-7.12
465.80	-14.46
466.16	-18.42
466.53	-25.76
466.90	-12.20
467.26	-29.38
467.63	-8.36
468.00	-14.01
468.36	-27.57
468.73	-9.83
469.10	-19.66
469.46	0.79
469.83	-15.03
470.20	-19.43
470.56	-13.78
470.93	-13.78
471.30	-22.03
471.66	-14.24
472.03	2.03
472.40	-11.07
472.76	-5.42
473.13	-13.45
473.50	-19.66
473.86	-2.15
474.23	-15.93
474.59	-24.41
474.96	-32.54
475.33	2.15
475.69	-9.94
476.06	-24.86
476.42	3.50
476.79	-13.67
477.16	-11.41
477.52	-12.54
477.89	-15.93
478.25	-5.42
478.62	-22.71
478.98	-5.54
479.35	-3.95
479.72	-21.02
480.08	-5.88
480.45	-4.29
480.81	-23.28
481.18	-37.29
481.54	-20.23
481.91	-26.55
482.27	-15.14
482.64	-25.31
483.00	-17.63
483.37	-17.29
483.73	-42.71
484.10	-18.87
484.46	-13.56
484.83	10.28
485.19	-19.55
485.56	-4.75
485.92	-24.18
486.29	-16.72
486.65	-11.86
487.02	-17.51
487.38	-10.73
487.75	-21.69
488.11	-16.72
488.48	-20.45
488.84	-19.89
489.21	-19.55
489.57	-31.98
489.94	-14.01
490.30	-8.14
490.66	-13.11
491.03	-15.59
491.39	-5.65
491.76	-21.36
492.12	-32.20
492.49	-22.15
492.85	-3.05
493.21	-13.67
493.58	-1.69
493.94	-1.02
494.31	-3.50
494.67	-6.78
495.03	-16.16
495.40	-8.70
495.76	-15.93
496.13	3.05
496.49	-5.20
496.85	-12.32
497.22	-16.50
497.58	-17.40
497.94	-0.68
498.31	3.50
498.67	-17.29
499.04	-13.33
499.40	-7.68
499.76	-4.86
500.13	-25.20
500.49	-8.47
500.85	-27.23
501.22	-15.82
501.58	-14.12
501.94	-2.37
502.31	-5.65
502.67	-5.54
503.03	-27.91
503.40	-5.76
503.76	-19.43
504.12	-5.20
504.48	-7.01
504.85	-17.40
505.21	-6.21
505.57	-22.94
505.94	-17.74
506.30	-15.03
506.66	-11.41
507.02	-21.92
507.39	-12.88
507.75	-31.52
508.11	-20.90
508.47	-2.71
508.84	-19.89
509.20	-14.24
509.56	-30.28
509.92	-19.55
510.29	-7.12
510.65	-10.62
511.01	-20.00
511.37	-32.32
511.74	4.63
512.10	1.92
512.46	-0.79
512.82	0.56
513.18	-24.41
513.55	-6.78
513.91	-12.77
514.27	-1.36
514.63	-23.16
514.99	-12.77
515.35	-4.86
515.72	-15.93
516.08	-16.50
516.44	-28.13
516.80	-22.15
517.16	-20.90
517.52	-25.20
517.89	-0.34
518.25	-20.00
518.61	-21.24
518.97	-12.77
519.33	-15.03
519.69	0.68
520.05	-18.19
520.42	-27.57
520.78	-34.58
521.14	-20.34
521.50	-9.38
521.86	-21.24
522.22	-8.70
522.58	-5.88
522.94	-25.76
523.30	-20.45
523.67	7.80
524.03	-19.77
524.39	-19.21
524.75	-11.30
525.11	-20.34
525.47	-9.27
525.83	-10.96
526.19	-15.71
526.55	17.85
526.91	-3.39
527.27	2.26
527.63	-15.82
527.99	-4.29
528.35	-8.47
528.71	-21.69
529.07	1.69
529.43	1.58
529.79	-16.61
530.15	0.45
530.51	-15.48
530.87	-11.07
531.23	-6.33
531.59	-7.12
531.95	-14.24
532.31	-32.20
532.67	-31.98
533.03	-21.13
533.39	-14.58
533.75	8.25
534.11	-34.46
534.47	-7.23
534.83	-5.88
535.19	-8.02
535.55	-9.72
535.91	2.49
536.27	-17.40
536.63	-21.13
536.99	-14.24
537.35	-21.13
537.71	-15.59
538.07	-14.01
538.43	-9.94
538.79	-32.88
539.15	-9.83
539.51	-23.95
539.86	-15.71
540.22	-16.84
540.58	-21.58
540.94	0.23
541.30	-25.31
541.66	-29.15
542.02	-3.39
542.38	-20.23
542.74	7.12
543.09	-25.42
543.45	-9.49
543.81	-7.34
544.17	-15.71
544.53	-25.31
544.89	-23.05
545.25	-17.97
545.60	-10.73
545.96	-32.43
546.32	-14.24
546.68	8.81
547.04	-24.97
547.40	-16.50
547.75	-9.27
548.11	-20.79
548.47	-25.42
548.83	-4.29
549.19	-18.30
549.55	6.55
549.90	-8.59
550.26	-2.15
550.62	-22.71
550.98	-10.73
551.34	-7.80
551.69	-14.24
552.05	-31.30
552.41	-24.18
552.77	-35.93
553.12	-32.32
553.48	0.79
553.84	-6.21
554.20	3.28
554.55	-20.34
554.91	4.41
555.27	-25.42
555.63	-10.96
555.98	11.53
556.34	-8.70
556.70	-5.88
557.05	-14.35
557.41	-14.80
557.77	-23.73
558.13	-22.94
558.48	-3.28
558.84	-18.64
559.20	1.81
559.55	3.84
559.91	-25.76
560.27	-15.59
560.62	-14.12
560.98	-10.62
561.34	-7.91
561.69	11.64
562.05	-13.33
562.41	-5.76
562.76	-28.25
563.12	-7.12
563.48	-12.54
563.83	-4.07
564.19	-11.53
564.55	-0.79
564.90	-9.60
565.26	-21.81
565.62	-23.16
565.97	-14.58
566.33	-13.67
566.68	-10.51
567.04	-9.04
567.40	0.90
567.75	-26.67
568.11	-11.19
568.46	-5.76
568.82	-4.63
569.18	-2.37
569.53	-7.01
569.89	-12.54
570.24	-2.15
570.60	-14.24
570.95	-5.88
571.31	9.83
571.66	23.50
572.02	28.70
572.38	43.50
572.73	57.29
573.09	17.74
573.44	50.06
573.80	51.98
574.15	28.47
574.51	50.96
574.86	63.39
575.22	64.97
575.57	34.35
575.93	34.80
576.28	31.75
576.64	37.97
576.99	59.77
577.35	43.73
577.70	37.63
578.06	27.34
578.41	48.59
578.77	31.64
579.12	19.66
579.48	25.99
579.83	22.71
580.18	22.94
580.54	5.76
580.89	14.69
581.25	-9.04
581.60	5.20
581.96	-24.29
582.31	-1.36
582.67	-16.84
583.02	1.81
583.37	-10.51
583.73	-2.26
584.08	-10.17
584.44	-6.78
584.79	-5.65
585.14	-15.37
585.50	-25.76
585.85	-38.42
586.21	-10.73
586.56	-9.04
586.91	-30.85
587.27	-24.29
587.62	-14.01
587.97	-24.41
588.33	-9.27
588.68	2.82
589.03	-8.59
589.39	-32.99
589.74	-7.34
590.09	-10.28
590.45	-12.77
590.80	-5.54
591.15	-11.19
591.51	-22.37
591.86	3.62
592.21	-0.23
592.57	-22.49
592.92	-15.03
593.27	-7.46
593.63	-16.95
593.98	7.23
594.33	-25.20
594.69	-1.36
595.04	-8.93
595.39	-1.81
595.74	-10.73
596.10	-13.33
596.45	-14.35
596.80	-27.23
597.15	-15.48
597.51	-0.56
597.86	0.45
598.21	-25.65
598.56	3.73
598.92	-4.41
599.27	-29.94
599.62	-8.59
599.97	-16.61
600.32	-1.81
600.68	-4.97
601.03	6.89
601.38	-33.56
601.73	-5.76
602.09	-7.23
602.44	-20.00
602.79	-28.47
603.14	-8.59
603.49	-3.84
603.84	-12.32
604.20	-9.72
604.55	-12.77
604.90	-9.04
605.25	-8.81
605.60	-16.72
605.95	-16.61
606.31	-26.21
606.66	-7.34
607.01	5.76
607.36	-14.35
607.71	-4.75
608.06	-21.58
608.41	-25.42
608.76	-24.29
609.12	-25.76
609.47	-9.04
609.82	-15.48
610.17	1.24
610.52	-7.80
610.87	9.94
611.22	-13.45
611.57	-7.12
611.92	-0.68
612.27	-2.37
612.62	2.60
612.98	-7.46
613.33	-22.82
613.68	0.11
614.03	-7.34
614.38	-5.76
614.73	-23.39
615.08	-14.12
615.43	-14.46
615.78	-27.91
616.13	-16.38
616.48	-16.04
616.83	-25.65
617.18	-14.91
617.53	-7.57
617.88	-27.23
618.23	0.11
618.58	7.12
618.93	-8.25
619.28	0.45
619.63	-31.30
619.98	-11.53
620.33	-0.79
620.68	-7.23
621.03	-10.73
621.38	-18.87
621.73	-13.78
622.08	-8.25
622.43	-20.23
622.78	-15.59
623.13	-21.24
623.48	-15.37
623.82	-14.58
624.17	-13.11
624.52	-31.75
624.87	-10.85
625.22	-27.00
625.57	-6.67
625.92	-20.00
626.27	-21.36
626.62	-3.28
626.97	-13.22
627.32	-9.94
627.66	-24.52
628.01	-14.35
628.36	-10.40
628.71	-17.63
629.06	-13.56
629.41	-3.50
629.76	-10.73
630.11	-6.67
630.45	-18.87
630.80	-22.15
631.15	-12.20
631.50	-20.45
631.85	-26.21
632.20	-12.09
632.54	-9.94
632.89	-18.19
633.24	-4.63
633.59	-19.89
633.94	-7.12
634.29	-3.62
634.63	-14.35
634.98	4.18
635.33	-21.24
635.68	-10.51
636.02	-15.37
636.37	-26.78
636.72	-2.03
637.07	-17.51
637.42	-14.80
637.76	-15.82
638.11	-15.37
638.46	-31.41
638.81	-0.79
639.15	-14.69
639.50	-2.71
639.85	3.16
640.20	1.81
640.54	-22.60
640.89	-11.30
641.24	6.21
641.58	-1.81
641.93	-2.82
642.28	-1.92
642.63	-10.06
642.97	-16.27
643.32	-2.15
643.67	-8.70
644.01	-22.94
644.36	-10.62
644.71	-18.42
645.05	-4.52
645.40	6.10
645.75	-14.91
646.09	-15.14
646.44	0.34
646.79	-19.43
647.13	-10.40
647.48	-7.80
647.83	3.84
648.17	-5.65
648.52	-6.10
648.86	-14.01
649.21	-17.74
649.56	-1.13
649.90	-10.06
650.25	-14.24
650.60	-16.16
650.94	6.33
651.29	-7.57
651.63	17.40
651.98	-7.57
652.33	-10.06
652.67	-12.32
653.02	-1.36
653.36	-9.04
653.71	-4.29
654.05	-8.02
654.40	-17.40
654.74	-6.78
655.09	1.47
655.44	-1.69
655.78	-4.63
656.13	-8.02
656.47	-17.97
656.82	-8.81
657.16	-1.92
657.51	-13.45
657.85	-2.60
658.20	-10.96
658.54	-5.42
658.89	-7.57
659.23	5.54
659.58	14.91
659.92	1.24
660.27	-27.80
660.61	-5.54
660.96	-7.23
661.30	3.84
661.65	-4.41
661.99	-16.16
662.33	1.24
662.68	4.75
663.02	1.69
663.37	13.11
663.71	4.75
664.06	19.32
664.40	9.27
664.75	2.15
665.09	-2.60
665.43	21.36
665.78	0.34
666.12	6.89
666.47	11.98
666.81	5.42
667.15	-6.89
667.50	-15.82
667.84	2.60
668.19	-0.45
668.53	18.64
668.87	5.31
669.22	10.96
669.56	14.46
669.90	8.81
670.25	18.08
670.59	18.19
670.93	25.20
671.28	17.51
671.62	22.94
671.96	19.77
672.31	27.34
672.65	25.88
672.99	19.66
673.34	17.40
673.68	18.08
674.02	40.11
674.37	33.11
674.71	23.28
675.05	23.16
675.40	28.25
675.74	42.37
676.08	35.59
676.42	48.81
676.77	28.36
677.11	39.21
677.45	31.98
677.79	30.96
678.14	36.72
678.48	52.20
678.82	46.89
679.16	52.43
679.51	60.45
679.85	45.87
680.19	53.11
680.53	53.56
680.88	71.86
681.22	57.74
681.56	54.01
681.90	68.59
682.24	61.02
682.59	65.53
682.93	75.70
683.27	60.34
683.61	92.88
683.95	51.07
684.29	59.66
684.64	65.87
684.98	86.78
685.32	76.72
685.66	89.38
686.00	96.04
686.34	78.64
686.69	75.48
687.03	81.13
687.37	100.11
687.71	109.83
688.05	101.35
688.39	103.61
688.73	130.62
689.07	112.65
689.41	99.55
689.76	102.71
690.10	102.82
690.44	103.50
690.78	104.63
691.12	114.57
691.46	111.18
691.80	139.54
692.14	131.52
692.48	153.44
692.82	134.23
693.16	146.78
693.50	151.86
693.84	157.17
694.18	159.88
694.53	174.12
694.87	190.39
695.21	172.76
695.55	180.67
695.89	185.98
696.23	200.11
696.57	199.09
696.91	208.24
697.25	188.36
697.59	226.77
697.93	237.62
698.27	215.81
698.61	221.35
698.95	227.79
699.29	232.65
699.63	225.98
699.97	228.02
700.30	258.75
700.64	262.14
700.98	285.53
701.32	289.71
701.66	282.03
702.00	297.73
702.34	304.17
702.68	324.74
703.02	351.74
703.36	337.84
703.70	345.19
704.04	343.95
704.38	374.91
704.72	372.98
705.05	369.71
705.39	401.01
705.73	400.22
706.07	385.87
706.41	404.40
706.75	425.19
707.09	453.55
707.43	453.10
707.77	464.39
708.10	467.45
708.44	465.52
708.78	484.62
709.12	503.72
709.46	526.77
709.80	537.16
710.13	568.46
710.47	562.02
710.81	557.16
711.15	573.21
711.49	586.31
711.82	633.20
712.16	622.58
712.50	631.85
712.84	670.26
713.18	654.22
713.51	670.83
713.85	706.99
714.19	715.91
714.53	700.09
714.87	752.30
715.20	778.17
715.54	774.78
715.88	819.53
716.22	825.40
716.55	852.18
716.89	841.79
717.23	891.28
717.57	891.50
717.90	922.57
718.24	936.47
718.58	958.62
718.91	979.97
719.25	1001.44
719.59	1029.69
719.93	1052.18
720.26	1090.37
720.60	1107.09
720.94	1137.37
721.27	1175.00
721.61	1180.31
721.95	1220.65
722.28	1241.55
722.62	1271.15
722.96	1317.59
723.29	1338.95
723.63	1353.86
723.97	1387.76
724.30	1439.51
724.64	1447.42
724.97	1509.68
725.31	1530.92
725.65	1573.86
725.98	1620.97
726.32	1627.08
726.66	1703.12
726.99	1751.03
727.33	1773.85
727.66	1831.25
728.00	1846.28
728.33	1936.11
728.67	1970.68
729.01	2025.03
729.34	2056.33
729.68	2126.27
730.01	2137.68
730.35	2206.83
730.68	2267.29
731.02	2314.74
731.36	2351.92
731.69	2433.72
732.03	2495.64
732.36	2544.45
732.70	2556.99
733.03	2642.87
733.37	2691.91
733.70	2779.25
734.04	2861.05
734.37	2906.36
734.71	2963.20
735.04	3071.67
735.38	3120.37
735.71	3196.30
736.05	3263.30
736.38	3290.08
736.72	3387.93
737.05	3442.51
737.38	3525.22
737.72	3607.02
738.05	3677.76
738.39	3742.16
738.72	3778.09
739.06	3881.25
739.39	3956.62
739.73	4037.75
740.06	4123.17
740.39	4188.59
740.73	4273.90
741.06	4377.96
741.40	4469.26
741.73	4554.00
742.06	4646.77
742.40	4731.85
742.73	4760.10
743.07	4890.38
743.40	4985.97
743.73	5057.27
744.07	5115.23
744.40	5209.47
744.73	5333.65
745.07	5428.44
745.40	5518.39
745.73	5624.26
746.07	5689.57
746.40	5785.38
746.73	5893.40
747.07	5983.91
747.40	6057.69
747.73	6199.16
748.07	6232.38
748.40	6405.26
748.73	6461.98
749.07	6616.55
749.40	6706.60
749.73	6778.24
750.06	6836.09
750.40	6952.47
750.73	7125.12
751.06	7228.06
751.40	7322.75
751.73	7426.70
752.06	7532.46
752.39	7645.34
752.73	7708.61
753.06	7875.27
753.39	7956.85
753.72	8078.21
754.05	8193.23
754.39	8259.22
754.72	8369.84
755.05	8544.97
755.38	8611.41
755.72	8666.66
756.05	8762.14
756.38	8892.20
756.71	8962.59
757.04	9113.88
757.37	9140.10
757.71	9278.06
758.04	9373.09
758.37	9460.66
758.70	9529.24
759.03	9682.91
759.36	9804.94
759.70	9939.74
760.03	9961.88
760.36	10129.11
760.69	10203.01
761.02	10245.61
761.35	10349.67
761.68	10505.15
762.01	10467.07
762.35	10575.77
762.68	10626.27
763.01	10813.39
763.34	10836.44
763.67	10940.16
764.00	10979.71
764.33	11075.64
764.66	11015.08
764.99	11101.97
765.32	11191.46
765.65	11281.29
765.98	11392.47
766.31	11305.24
766.65	11284.90
766.98	11319.70
767.31	11391.00
767.64	11510.21
767.97	11459.81
768.30	11419.70
768.63	11450.77
768.96	11327.27
769.29	11420.49
769.62	11305.47
769.95	11429.53
770.28	11353.03
770.61	11303.43
770.94	11365.01
771.27	11313.71
771.60	11373.03
771.93	11300.49
772.26	11249.53
772.59	11180.05
772.92	11254.73
773.24	11212.59
773.57	11246.60
773.90	11094.51
774.23	11071.12
774.56	11049.43
774.89	11006.38
775.22	10871.58
775.55	10808.42
775.88	10746.16
776.21	10674.07
776.54	10537.92
776.87	10431.14
777.19	10423.79
777.52	10374.98
777.85	10226.51
778.18	10136.68
778.51	10005.05
778.84	9953.52
779.17	9920.42
779.50	9891.60
779.82	9727.20
780.15	9559.41
780.48	9458.62
780.81	9388.68
781.14	9309.70
781.47	9251.17
781.80	9048.80
782.12	9081.00
782.45	8897.28
782.78	8892.76
783.11	8740.22
783.44	8603.05
783.76	8591.75
784.09	8381.47
784.42	8330.06
784.75	8255.04
785.08	8120.24
785.40	7985.89
785.73	7907.14
786.06	7728.16
786.39	7713.70
786.71	7586.69
787.04	7511.33
787.37	7382.86
787.70	7234.39
788.02	7157.44
788.35	7013.49
788.68	6904.79
789.00	6815.98
789.33	6636.55
789.66	6600.96
789.99	6448.87
790.31	6287.86
790.64	6289.67
790.97	6151.14
791.29	6097.35
791.62	5946.74
791.95	5817.02
792.27	5713.52
792.60	5612.51
792.93	5525.73
793.25	5421.10
793.58	5327.77
793.91	5238.51
794.23	5148.45
794.56	5059.19
794.89	4956.48
795.21	4920.32
795.54	4784.62
795.87	4703.49
796.19	4579.88
796.52	4533.10
796.84	4464.18
797.17	4359.21
797.50	4313.67
797.82	4145.43
798.15	4088.48
798.47	4033.79
798.80	3950.52
799.12	3873.34
799.45	3779.67
799.78	3691.20
800.10	3616.74
800.43	3519.23
800.75	3435.73
801.08	3377.65
801.40	3309.97
801.73	3227.37
802.05	3125.68
802.38	3043.76
802.70	2969.19
803.03	2900.71
803.35	2853.26
803.68	2774.16
804.00	2727.72
804.33	2637.11
804.65	2580.50
804.98	2486.04
805.30	2405.70
805.63	2351.92
805.95	2302.88
806.28	2232.48
806.60	2119.49
806.93	2099.49
807.25	2049.10
807.58	1992.72
807.90	1930.91
808.22	1850.12
808.55	1816.34
808.87	1780.52
809.20	1713.40
809.52	1682.10
809.85	1608.66
810.17	1541.65
810.49	1533.29
810.82	1487.64
811.14	1423.58
811.47	1405.27
811.79	1327.20
812.11	1291.60
812.44	1263.02
812.76	1232.96
813.08	1172.62
813.41	1151.72
813.73	1108.90
814.05	1067.88
814.38	1033.31
814.70	1006.08
815.02	962.69
815.35	961.10
815.67	901.33
815.99	902.91
816.32	886.76
816.64	810.71
816.96	802.80
817.29	774.78
817.61	769.02
817.93	729.92
818.26	725.86
818.58	665.18
818.90	663.37
819.22	653.77
819.55	640.44
819.87	605.29
820.19	596.26
820.51	559.08
820.84	523.72
821.16	536.82
821.48	497.84
821.80	503.72
822.13	483.49
822.45	469.25
822.77	439.31
823.09	433.66
823.41	455.24
823.74	435.92
824.06	394.00
824.38	398.86
824.70	364.06
825.02	344.28
825.35	355.36
825.67	347.45
825.99	330.50
826.31	329.48
826.63	321.01
826.95	308.35
827.27	305.64
827.60	305.75
827.92	294.00
828.24	278.52
828.56	279.20
828.88	253.67
829.20	275.47
829.52	240.78
829.84	266.66
830.17	231.29
830.49	214.34
830.81	224.40
831.13	210.50
831.45	198.30
831.77	189.03
832.09	197.17
832.41	180.45
832.73	190.50
833.05	182.03
833.37	174.91
833.69	165.76
834.01	164.40
834.33	157.51
834.65	145.98
834.97	159.54
835.29	155.70
835.61	139.77
835.94	142.14
836.26	135.93
836.58	140.67
836.90	126.44
837.21	121.47
837.53	127.79
837.85	119.77
838.17	139.32
838.49	95.70
838.81	102.82
839.13	110.17
839.45	96.16
839.77	109.60
840.09	96.04
840.41	85.08
840.73	84.97
841.05	79.43
841.37	79.09
841.69	88.25
842.01	89.38
842.33	79.88
842.65	67.46
842.96	51.98
843.28	66.78
843.60	66.21
843.92	57.40
844.24	68.13
844.56	58.08
844.88	58.87
845.20	49.60
845.52	61.81
845.83	49.60
846.15	41.92
846.47	69.38
846.79	46.67
847.11	45.76
847.43	33.45
847.74	51.75
848.06	26.21
848.38	48.70
848.70	43.73
849.02	35.14
849.33	31.98
849.65	35.71
849.97	44.29
850.29	27.57
850.61	33.90
850.92	25.99
851.24	24.75
851.56	18.08
851.88	23.05
852.19	25.88
852.51	19.10
852.83	31.30
853.15	11.64
853.46	18.64
853.78	20.68
854.10	19.77
854.42	15.59
854.73	5.42
855.05	-2.26
855.37	12.20
855.68	9.15
856.00	12.54
856.32	-1.13
856.63	-0.68
856.95	3.05
857.27	1.81
857.59	2.60
857.90	-4.52
858.22	-11.19
858.53	1.92
858.85	2.49
859.17	12.43
859.48	1.24
859.80	-5.42
860.12	-10.85
860.43	-8.59
860.75	-10.28
861.07	11.41
861.38	-11.98
861.70	2.94
862.01	0.00
862.33	-11.07
862.65	-12.66
862.96	3.50
863.28	-8.59
863.59	-5.31
863.91	4.75
864.22	3.84
864.54	-14.91
864.86	13.67
865.17	-14.12
865.49	11.75
865.80	-15.93
866.12	-15.71
866.43	-18.76
866.75	-10.96
867.06	-12.20
867.38	-8.25
867.69	-14.58
868.01	-23.73
868.32	-14.46
868.64	-5.65
868.95	-7.91
869.27	-7.80
869.58	-11.41
869.90	0.11
870.21	-12.66
870.53	0.79
870.84	-0.90
871.15	-6.78
871.47	5.65
871.78	11.64
872.10	-13.11
872.41	-6.21
872.73	-13.56
873.04	-7.68
873.36	-13.56
873.67	-7.34
873.98	-6.44
874.30	2.37
874.61	-17.51
874.93	-14.46
875.24	6.33
875.55	-22.03
875.87	-16.61
876.18	-14.12
876.49	-4.29
876.81	-6.44
877.12	-9.04
877.43	-16.61
877.75	-15.59
878.06	3.05
878.37	-19.10
878.69	-3.73
879.00	-4.29
879.31	-7.23
879.63	-19.10
879.94	2.49
880.25	-14.01
880.57	-15.59
880.88	-4.41
881.19	6.89
881.50	-13.11
881.82	-5.20
882.13	-13.56
882.44	-8.59
882.76	-4.52
883.07	-13.11
883.38	-7.23
883.69	-12.54
884.01	-25.65
884.32	-15.71
884.63	-22.71
884.94	-9.60
885.25	-20.23
885.57	-6.10
885.88	1.24
886.19	1.69
886.50	-8.93
886.81	-4.63
887.13	-5.08
887.44	-9.15
887.75	-5.20
888.06	-9.72
888.37	9.27
888.69	-27.46
889.00	-34.12
889.31	-4.86
889.62	-6.89
889.93	-14.46
890.24	-3.73
890.55	-13.33
890.87	-21.81
891.18	12.54
891.49	-10.96
891.80	-33.11
892.11	-25.20
892.42	-14.01
892.73	-9.15
893.04	-14.12
893.35	1.92
893.66	-5.76
893.98	-31.86
894.29	-20.23
894.60	-28.13
894.91	-0.45
895.22	-29.49
895.53	-3.62
895.84	-8.02
896.15	-20.00
896.46	0.90
896.77	-23.05
897.08	-38.08
897.39	-6.67
897.70	6.44
898.01	-10.85
898.32	-31.07
898.63	-19.32
898.94	-16.38
899.25	-8.14
899.56	-15.71
899.87	-14.01
900.18	-1.81
900.49	-22.26
900.80	-16.16
901.11	-18.64
901.42	-16.38
901.73	-3.84
902.04	-0.34
902.35	-4.52
902.66	-26.78
902.96	-14.58
903.27	-28.47
903.58	-12.77
903.89	-8.36
904.20	-2.26
904.51	-20.79
904.82	-30.62
905.13	-37.17
905.44	-15.82
905.75	-17.29
906.05	-15.48
906.36	-2.37
906.67	-13.56
906.98	-21.69
907.29	-17.29
907.60	-5.99
907.91	-3.73
908.21	-10.40
908.52	-15.48
908.83	-17.51
909.14	-14.01
909.45	-21.24
909.75	-12.88
910.06	-4.29
910.37	-14.58
910.68	-6.33
910.99	-10.73
911.29	-6.89
911.60	-11.19
911.91	-30.73
912.22	-2.60
912.52	-14.58
912.83	-0.45
913.14	-11.19
913.45	-29.83
913.75	-29.49
914.06	-18.30
914.37	-13.90
914.68	-9.72
914.98	-25.76
915.29	-8.81
915.60	-3.28
915.91	-7.46
916.21	-16.95
916.52	-7.12
916.83	-20.90
917.13	-0.45
917.44	11.07
917.75	-14.01
918.05	1.13
918.36	-20.34
918.67	-15.37
918.97	-22.82
919.28	-12.43
919.59	-10.06
919.89	-32.99
920.20	-33.11
920.50	-17.85
920.81	-27.12
921.12	-17.17
921.42	-21.24
921.73	-14.12
922.03	-25.88
922.34	-15.59
922.65	-12.54
922.95	3.39
923.26	-11.19
923.56	-17.17
923.87	-26.78
924.18	-21.92
924.48	-4.75
924.79	-21.24
925.09	-25.54
925.40	-9.38
925.70	-11.64
926.01	-8.93
926.31	1.69
926.62	-18.53
926.92	-11.53
927.23	-27.23
927.53	-22.60
927.84	-20.23
928.14	-28.02
928.45	0.34
928.75	-1.69
929.06	-12.09
929.36	-1.36
929.67	-17.97
929.97	-4.29
930.28	2.60
930.58	-1.92
930.89	-22.60
931.19	-16.61
931.49	-17.63
931.80	-26.78
932.10	4.52
932.41	-26.89
932.71	-21.58
933.01	-11.41
933.32	-16.27
933.62	-17.74
933.93	-19.21
934.23	-13.90
934.53	-29.04
934.84	-20.68
935.14	-16.38
935.45	-40.56
935.75	-26.44
936.05	-15.71
936.36	-14.24
936.66	11.53
936.96	-23.39
937.27	-25.65
937.57	-11.53
937.87	-13.78
938.18	-18.87
938.48	-9.15
938.78	-12.88
939.08	-45.42
939.39	1.92
939.69	-16.16
939.99	-7.57
940.30	-12.99
940.60	-3.28
940.90	-19.32
941.20	-9.04
941.51	-15.03
941.81	6.78
942.11	-22.26
942.41	-14.46
942.72	-0.79
943.02	-23.39
943.32	-10.28
943.62	-14.46
943.93	-14.80
944.23	-1.36
944.53	-4.86
944.83	-4.29
945.13	6.10
945.44	-11.19
945.74	-3.16
946.04	-23.95
946.34	-10.28
946.64	-28.47
946.94	-6.55
947.25	-19.89
947.55	-24.18
947.85	-9.94
948.15	-20.90
948.45	-23.62
948.75	-26.55
949.05	-25.54
949.35	-8.81
949.66	-11.19
949.96	-10.51
950.26	-18.87
950.56	-9.04
950.86	-19.43
951.16	-22.82
951.46	-18.87
951.76	8.93
952.06	-16.27
952.36	-5.42
952.66	-39.43
952.96	-10.73
953.26	-24.75
953.57	-18.30
953.87	-29.49
954.17	-7.80
954.47	-4.97
954.77	-35.93
955.07	6.10
955.37	-6.10
955.67	-13.45
955.97	1.81
956.27	-19.32
956.57	-19.10
956.87	-17.85
957.17	-7.80
957.47	-10.62
957.77	-16.16
958.06	-28.02
958.36	-16.04
958.66	1.47
958.96	-5.76
959.26	-13.90
959.56	-24.07
959.86	-31.41
960.16	-12.20
960.46	-23.28
960.76	1.47
961.06	-21.92
961.36	-26.78
961.66	12.43
961.95	-22.49
962.25	-10.51
962.55	-15.82
962.85	1.36
963.15	-2.37
963.45	-16.95
963.75	-13.22
964.05	-15.14
964.34	-7.01
964.64	-12.66
964.94	-23.95
965.24	-24.18
965.54	-15.71
965.83	-14.35
966.13	-0.79
966.43	-6.78
966.73	-10.40
967.03	-19.43
967.32	-3.16
967.62	2.03
967.92	-1.69
968.22	-2.03
968.52	-6.89
968.81	-38.42
969.11	-17.29
969.41	-10.51
969.71	-10.06
970.00	-4.07
970.30	-3.28
970.60	9.83
970.90	-17.51
971.19	6.33
971.49	-18.53
971.79	-27.34
972.08	-16.84
972.38	-32.32
972.68	-25.65
972.97	-17.97
973.27	-4.41
973.57	-9.94
973.87	0.23
974.16	-28.25
974.46	-22.15
974.75	-20.68
975.05	-13.33
975.35	-12.43
975.64	-28.93
975.94	-9.94
976.24	-21.58
976.53	-13.56
976.83	-14.35
977.13	-10.73
977.42	1.13
977.72	4.86
978.01	-20.90
978.31	-15.37
978.60	-19.43
978.90	-20.00
979.20	-32.09
979.49	-28.59
979.79	-27.23
980.08	-9.94
980.38	-16.04
980.67	-7.12
980.97	-22.03
981.26	-30.96
981.56	-32.20
981.86	-3.05
982.15	-9.15
982.45	-19.21
982.74	-22.37
983.04	-14.24
983.33	-23.73
983.63	-24.63
983.92	-4.63
984.21	-23.95
984.51	-35.37
984.80	-10.62
985.10	-22.26
985.39	-14.35
985.69	-7.91
985.98	-33.56
986.28	-18.08
986.57	-17.97
986.87	1.47
987.16	-16.61
987.45	-5.76
987.75	-2.15
988.04	2.37
988.34	-18.98
988.63	-9.27
988.92	-18.64
989.22	-23.50
989.51	-11.07
989.80	-13.56
990.10	12.32
990.39	-27.80
990.69	-15.93
990.98	-21.47
991.27	-2.82
991.57	-23.39
991.86	-7.34
992.15	-8.47
992.45	-22.15
992.74	-24.41
993.03	-21.69
993.33	-11.30
993.62	-2.60
993.91	-12.66
994.20	-12.99
994.50	-42.82
994.79	-14.24
995.08	-7.34
995.37	-12.99
995.67	-3.84
995.96	-30.39
996.25	-14.24
996.54	-4.29
996.84	-2.03
997.13	-21.69
997.42	-21.92
997.71	-11.64
998.01	-15.93
998.30	-24.63
998.59	-10.51
998.88	-27.23
999.17	-20.34
999.47	1.81
999.76	-17.06
1000.05	-21.58
1000.34	-12.77
1000.63	-14.80
1000.92	-7.91
1001.22	-21.36
1001.51	-8.47
1001.80	-16.72
1002.09	-16.72
1002.38	-6.55
1002.67	-34.80
1002.96	-15.93
1003.26	9.38
1003.55	-22.94
1003.84	-3.39
1004.13	-8.02
1004.42	-19.55
1004.71	-36.50
1005.00	-12.43
1005.29	-1.24
1005.58	-11.86
1005.87	-17.74
1006.16	-24.86
1006.45	-6.89
1006.74	-23.50
1007.04	-4.29
1007.33	-3.28
1007.62	-17.85
1007.91	-15.37
1008.20	-11.64
1008.49	-29.83
1008.78	-20.90
1009.07	-20.23
1009.36	-14.12
1009.65	-20.00
1009.94	-24.52
1010.23	-27.68
1010.52	-27.46
1010.81	-23.16
1011.10	-23.50
1011.38	-31.98
1011.67	-26.67
1011.96	-3.62
1012.25	-11.53
1012.54	-17.85
1012.83	-28.70
1013.12	-34.80
1013.41	-24.29
1013.70	-15.71
1013.99	-17.51
1014.28	6.55
1014.57	-3.95
1014.86	1.13
1015.14	-8.14
1015.43	-12.99
1015.72	-31.41
1016.01	-16.61
1016.30	-23.62
1016.59	-22.82
1016.88	2.71
1017.16	4.07
1017.45	-21.69
1017.74	-13.11
1018.03	-8.02
1018.32	-33.11
1018.61	-14.01
1018.89	-5.76
1019.18	-6.55
1019.47	-7.68
1019.76	-20.68
1020.05	-14.80
1020.33	-11.41
1020.62	-18.42
1020.91	-10.28
1021.20	-18.42
1021.48	-28.59
1021.77	-4.18
1022.06	-24.52
1022.35	10.51
1022.63	-14.69
1022.92	-20.79
1023.21	0.23
1023.50	-8.47
1023.78	-7.80
1024.07	0.90
1024.36	-15.14
1024.64	-17.51
1024.93	-35.03
1025.22	-12.66
1025.50	10.06
1025.79	-22.15
1026.08	-7.46
1026.36	-1.47
1026.65	-32.32
1026.94	-9.83
1027.22	-16.16
1027.51	-9.15
1027.80	-8.14
1028.08	-14.58
1028.37	-19.77
1028.66	-12.77
1028.94	-22.03
>>>>>End Processed Spectral Data<<<<<
