SpectraSuite Data File
++++++++++++++++++++++++++++++++++++
Date: Thu Jun 15 11:35:44 BST 2017
User: Eng0000912
Dark Spectrum Present: Yes
Reference Spectrum Present: No
Number of Sampled Component Spectra: 1
Spectrometers: USB2+H04851
Integration Time (usec): 100000 (USB2+H04851)
Spectra Averaged: 20 (USB2+H04851)
Boxcar Smoothing: 0 (USB2+H04851)
Correct for Electrical Dark: No (USB2+H04851)
Strobe/Lamp Enabled: No (USB2+H04851)
Correct for Detector Non-linearity: No (USB2+H04851)
Correct for Stray Light: No (USB2+H04851)
Number of Pixels in Processed Spectrum: 2048
>>>>>Begin Processed Spectral Data<<<<<
340.07	-10.17
340.45	-10.17
340.82	-10.17
341.20	-5.76
341.58	-7.68
341.96	-10.73
342.34	-18.87
342.72	7.68
343.10	-13.45
343.48	-25.31
343.85	-29.72
344.23	-18.64
344.61	15.48
344.99	-2.26
345.37	10.96
345.75	-20.56
346.13	-15.37
346.50	-12.88
346.88	9.04
347.26	-13.78
347.64	-25.88
348.02	-18.42
348.40	-13.90
348.77	0.90
349.15	-25.88
349.53	-15.03
349.91	-18.87
350.29	-5.20
350.66	-5.99
351.04	0.34
351.42	1.36
351.80	-11.86
352.18	-17.51
352.55	-11.98
352.93	-18.30
353.31	-3.39
353.69	-15.37
354.07	-8.70
354.44	-2.60
354.82	-18.64
355.20	-14.12
355.58	0.00
355.95	-9.04
356.33	-19.10
356.71	-18.08
357.09	-29.72
357.46	-17.74
357.84	-7.34
358.22	-7.68
358.60	-18.76
358.97	-16.38
359.35	-10.73
359.73	1.13
360.10	6.44
360.48	6.33
360.86	-10.73
361.24	-0.34
361.61	-0.00
361.99	-20.79
362.37	-22.71
362.74	-17.29
363.12	-11.53
363.50	-17.17
363.87	-6.55
364.25	-24.86
364.63	-38.98
365.01	-15.14
365.38	-22.60
365.76	-16.04
366.14	-4.29
366.51	-28.70
366.89	-18.76
367.27	-3.95
367.64	3.50
368.02	-3.16
368.39	0.34
368.77	-31.30
369.15	-35.25
369.52	6.55
369.90	-10.85
370.28	-11.30
370.65	-10.40
371.03	-32.43
371.40	-19.10
371.78	-14.12
372.16	-16.72
372.53	-3.84
372.91	-3.84
373.28	-11.75
373.66	-6.10
374.04	-19.55
374.41	-8.59
374.79	-7.91
375.16	-17.51
375.54	-24.75
375.92	-11.07
376.29	-10.06
376.67	-17.29
377.04	-17.29
377.42	-20.45
377.79	4.75
378.17	-6.10
378.55	-23.50
378.92	-1.36
379.30	-16.04
379.67	-17.17
380.05	5.08
380.42	10.96
380.80	2.82
381.17	-15.48
381.55	-2.26
381.92	-3.84
382.30	-21.47
382.67	2.03
383.05	-0.68
383.42	-21.24
383.80	-31.19
384.17	3.16
384.55	-14.91
384.92	-15.59
385.30	-8.36
385.67	-11.41
386.05	1.36
386.42	-10.40
386.80	-6.78
387.17	-5.20
387.55	-26.10
387.92	-6.89
388.30	-15.03
388.67	-9.60
389.04	-8.25
389.42	-12.66
389.79	-14.91
390.17	-8.47
390.54	-10.40
390.92	-8.47
391.29	-2.26
391.67	1.13
392.04	2.26
392.41	1.58
392.79	-9.83
393.16	-5.54
393.54	-15.82
393.91	-10.28
394.28	-3.16
394.66	-23.16
395.03	-12.54
395.41	-22.15
395.78	-4.97
396.15	-5.54
396.53	-12.20
396.90	-16.50
397.28	0.00
397.65	-0.90
398.02	-12.32
398.40	-9.38
398.77	-12.88
399.14	-12.20
399.52	-32.09
399.89	-5.31
400.26	-21.02
400.64	-23.73
401.01	-7.46
401.38	5.08
401.76	-7.80
402.13	7.34
402.50	20.56
402.88	-6.33
403.25	-5.88
403.62	-25.54
404.00	-16.16
404.37	-4.63
404.74	-15.93
405.12	-24.07
405.49	-0.90
405.86	-8.36
406.23	-32.09
406.61	10.17
406.98	-31.07
407.35	-22.37
407.73	-16.72
408.10	17.29
408.47	-1.58
408.84	-9.15
409.22	-18.87
409.59	-12.88
409.96	-19.10
410.33	-22.37
410.71	-12.88
411.08	5.08
411.45	-9.04
411.82	-9.15
412.20	-4.18
412.57	0.23
412.94	-10.85
413.31	-33.56
413.68	-1.13
414.06	-1.58
414.43	-23.84
414.80	-21.36
415.17	-1.47
415.55	-13.33
415.92	-3.16
416.29	10.40
416.66	-12.20
417.03	-15.82
417.40	-3.50
417.78	-4.52
418.15	-4.52
418.52	2.15
418.89	-10.28
419.26	-3.05
419.63	-13.90
420.01	-16.38
420.38	2.71
420.75	-19.32
421.12	-6.67
421.49	-3.62
421.86	1.81
422.23	-8.93
422.61	-9.38
422.98	-14.01
423.35	-16.04
423.72	0.23
424.09	-20.68
424.46	7.12
424.83	-10.96
425.20	-23.95
425.58	-7.34
425.95	-2.49
426.32	-9.83
426.69	-9.15
427.06	-3.50
427.43	-0.90
427.80	-15.14
428.17	-15.59
428.54	1.81
428.91	-6.78
429.28	11.64
429.65	-11.41
430.02	-11.86
430.40	-12.20
430.77	-11.98
431.14	-38.64
431.51	4.75
431.88	-8.47
432.25	-5.88
432.62	-15.25
432.99	-17.40
433.36	-7.80
433.73	-15.25
434.10	1.13
434.47	-23.62
434.84	2.49
435.21	-4.97
435.58	-6.78
435.95	-9.83
436.32	-13.78
436.69	-19.66
437.06	-14.91
437.43	-8.59
437.80	-13.11
438.17	-1.92
438.54	-18.87
438.91	1.58
439.28	8.47
439.65	-18.08
440.02	-17.85
440.39	-8.14
440.76	-16.61
441.13	-10.96
441.49	-13.56
441.86	-18.42
442.23	1.69
442.60	-10.28
442.97	-8.25
443.34	-6.67
443.71	-12.66
444.08	-35.37
444.45	2.71
444.82	-12.66
445.19	-12.77
445.56	-25.31
445.93	-11.07
446.29	-5.54
446.66	-18.98
447.03	-13.67
447.40	15.82
447.77	-10.28
448.14	-9.94
448.51	-13.22
448.88	1.69
449.24	2.37
449.61	-9.49
449.98	-1.58
450.35	-8.59
450.72	-12.20
451.09	-11.19
451.46	-5.08
451.82	-5.76
452.19	-10.40
452.56	-19.21
452.93	-10.17
453.30	-10.40
453.67	-4.52
454.03	-16.95
454.40	-29.83
454.77	-9.38
455.14	-21.13
455.51	-10.96
455.87	-18.87
456.24	6.78
456.61	-6.78
456.98	-21.47
457.35	1.58
457.71	-12.32
458.08	-37.40
458.45	-7.80
458.82	-0.68
459.19	-12.88
459.55	-4.86
459.92	-12.54
460.29	0.79
460.66	0.68
461.02	-4.75
461.39	-1.36
461.76	-15.48
462.13	-19.89
462.49	-1.24
462.86	-0.11
463.23	-14.46
463.59	-16.50
463.96	-25.99
464.33	5.54
464.70	-3.84
465.06	-5.88
465.43	-13.33
465.80	-3.73
466.16	-14.01
466.53	-28.02
466.90	-8.14
467.26	-25.99
467.63	-18.30
468.00	-15.71
468.36	-22.03
468.73	0.68
469.10	-8.59
469.46	-8.70
469.83	-10.51
470.20	-8.36
470.56	-17.85
470.93	-3.39
471.30	-21.13
471.66	-1.69
472.03	2.49
472.40	-8.36
472.76	-6.33
473.13	-17.29
473.50	-20.11
473.86	-13.56
474.23	-11.98
474.59	-35.59
474.96	-24.52
475.33	-5.65
475.69	-17.74
476.06	-19.55
476.42	1.92
476.79	-14.69
477.16	-1.24
477.52	-2.94
477.89	-12.20
478.25	-5.76
478.62	-21.24
478.98	-9.49
479.35	18.64
479.72	-20.00
480.08	-4.97
480.45	-9.60
480.81	-2.94
481.18	-18.53
481.54	-28.25
481.91	-16.27
482.27	-8.59
482.64	-20.79
483.00	-1.81
483.37	-21.92
483.73	-12.54
484.10	-19.32
484.46	-22.26
484.83	-0.00
485.19	-10.06
485.56	-2.71
485.92	-2.03
486.29	-8.59
486.65	-7.46
487.02	-2.71
487.38	-16.95
487.75	-20.00
488.11	-9.38
488.48	-12.54
488.84	-25.76
489.21	4.63
489.57	-33.11
489.94	-11.53
490.30	0.68
490.66	-1.81
491.03	-13.11
491.39	-0.45
491.76	-3.16
492.12	-0.45
492.49	-8.93
492.85	-16.61
493.21	-6.33
493.58	3.16
493.94	7.23
494.31	-10.06
494.67	-10.96
495.03	-20.23
495.40	9.38
495.76	-31.19
496.13	-19.66
496.49	-12.66
496.85	-9.60
497.22	-24.86
497.58	-14.35
497.94	-1.36
498.31	8.25
498.67	-13.90
499.04	-5.76
499.40	-10.73
499.76	-7.01
500.13	-12.88
500.49	-10.51
500.85	-26.89
501.22	-21.36
501.58	-2.03
501.94	-14.58
502.31	6.89
502.67	8.47
503.03	-27.80
503.40	-5.88
503.76	-21.24
504.12	-0.23
504.48	-2.60
504.85	-3.62
505.21	-17.17
505.57	-12.66
505.94	-13.22
506.30	-17.29
506.66	-16.27
507.02	-5.76
507.39	-7.01
507.75	-28.59
508.11	-6.67
508.47	-14.46
508.84	-5.42
509.20	-0.45
509.56	-12.66
509.92	-17.06
510.29	-21.13
510.65	-11.19
511.01	-23.95
511.37	-24.29
511.74	7.12
512.10	-1.58
512.46	4.29
512.82	-0.90
513.18	-8.14
513.55	-3.84
513.91	-9.38
514.27	-8.36
514.63	-15.82
514.99	-13.90
515.35	3.16
515.72	-7.34
516.08	-19.43
516.44	-16.95
516.80	-7.80
517.16	-7.12
517.52	-10.73
517.89	-20.34
518.25	-19.43
518.61	-25.42
518.97	-7.46
519.33	-15.82
519.69	-1.47
520.05	-22.60
520.42	-23.16
520.78	-17.51
521.14	-32.77
521.50	-15.37
521.86	-9.94
522.22	5.31
522.58	-12.32
522.94	-13.22
523.30	-8.47
523.67	3.62
524.03	-20.45
524.39	-21.24
524.75	-10.40
525.11	4.75
525.47	-7.80
525.83	-9.15
526.19	-17.97
526.55	18.76
526.91	-4.52
527.27	-10.96
527.63	-1.58
527.99	-8.47
528.35	-8.59
528.71	-11.75
529.07	0.34
529.43	1.13
529.79	-8.93
530.15	-5.88
530.51	-26.78
530.87	-2.26
531.23	-1.13
531.59	-19.89
531.95	-6.67
532.31	-34.12
532.67	-30.06
533.03	-23.05
533.39	-15.82
533.75	-8.36
534.11	-20.79
534.47	-7.12
534.83	-2.94
535.19	-0.56
535.55	6.10
535.91	-9.27
536.27	-12.32
536.63	-18.30
536.99	-4.97
537.35	-11.64
537.71	-9.49
538.07	-3.16
538.43	-2.60
538.79	-18.30
539.15	-1.69
539.51	-22.49
539.86	-3.84
540.22	-1.36
540.58	-25.88
540.94	-23.95
541.30	-19.77
541.66	-8.81
542.02	-7.57
542.38	-13.33
542.74	-6.33
543.09	-12.66
543.45	-1.36
543.81	-15.03
544.17	-1.58
544.53	-30.51
544.89	-4.97
545.25	-2.26
545.60	-20.34
545.96	-25.88
546.32	-9.49
546.68	-13.56
547.04	-19.55
547.40	-7.80
547.75	-12.09
548.11	-22.60
548.47	-4.97
548.83	-7.12
549.19	-12.54
549.55	-17.29
549.90	-10.17
550.26	-4.86
550.62	-5.76
550.98	-7.23
551.34	-15.93
551.69	2.15
552.05	-15.14
552.41	-12.43
552.77	-22.71
553.12	-18.42
553.48	-9.15
553.84	-14.12
554.20	-5.54
554.55	-27.80
554.91	6.44
555.27	-29.38
555.63	-16.04
555.98	5.42
556.34	-11.98
556.70	-13.45
557.05	-4.97
557.41	-8.70
557.77	-11.53
558.13	-20.45
558.48	-11.07
558.84	-29.04
559.20	-0.90
559.55	-18.42
559.91	-6.44
560.27	-10.85
560.62	-5.31
560.98	-0.23
561.34	17.97
561.69	-6.67
562.05	-15.82
562.41	-14.58
562.76	-7.46
563.12	-11.64
563.48	-1.13
563.83	-11.64
564.19	-10.17
564.55	-7.57
564.90	-6.21
565.26	-25.54
565.62	-8.36
565.97	-17.74
566.33	-4.29
566.68	-6.89
567.04	0.23
567.40	-0.90
567.75	-11.64
568.11	-4.86
568.46	-4.86
568.82	-1.02
569.18	-8.25
569.53	1.47
569.89	-9.72
570.24	17.06
570.60	-7.12
570.95	10.73
571.31	13.78
571.66	32.20
572.02	26.44
572.38	44.74
572.73	72.09
573.09	44.41
573.44	69.49
573.80	41.02
574.15	25.42
574.51	47.80
574.86	65.31
575.22	47.12
575.57	41.35
575.93	44.74
576.28	44.52
576.64	40.45
576.99	64.29
577.35	39.89
577.70	34.35
578.06	52.99
578.41	36.50
578.77	22.60
579.12	12.99
579.48	38.53
579.83	34.12
580.18	12.09
580.54	11.75
580.89	10.17
581.25	19.10
581.60	12.66
581.96	-9.15
582.31	-5.54
582.67	-5.20
583.02	8.70
583.37	-11.30
583.73	-16.95
584.08	-8.70
584.44	3.28
584.79	-8.47
585.14	-3.05
585.50	1.36
585.85	-20.79
586.21	-8.14
586.56	-12.20
586.91	-29.72
587.27	-29.38
587.62	-8.47
587.97	-28.25
588.33	-12.77
588.68	6.33
589.03	-4.52
589.39	-8.25
589.74	-1.92
590.09	-1.58
590.45	-1.58
590.80	-16.84
591.15	0.45
591.51	0.45
591.86	0.34
592.21	1.13
592.57	-14.01
592.92	-14.69
593.27	6.78
593.63	-18.19
593.98	-16.16
594.33	-19.21
594.69	-5.88
595.04	-10.06
595.39	6.44
595.74	-5.76
596.10	-17.29
596.45	-12.09
596.80	-23.16
597.15	-17.63
597.51	0.68
597.86	-1.02
598.21	-9.15
598.56	11.07
598.92	-6.55
599.27	2.03
599.62	4.75
599.97	-2.82
600.32	-2.60
600.68	2.03
601.03	9.60
601.38	-2.82
601.73	-5.54
602.09	-18.19
602.44	-8.25
602.79	-20.00
603.14	-5.99
603.49	-3.95
603.84	0.23
604.20	-14.24
604.55	-4.52
604.90	-18.53
605.25	-4.52
605.60	-3.95
605.95	-14.01
606.31	-25.42
606.66	-6.89
607.01	-20.68
607.36	-4.29
607.71	-23.84
608.06	-5.08
608.41	-20.23
608.76	-10.62
609.12	-2.15
609.47	-3.28
609.82	-9.83
610.17	2.15
610.52	0.45
610.87	4.41
611.22	-6.33
611.57	-20.56
611.92	-3.50
612.27	16.84
612.62	-5.20
612.98	3.50
613.33	-24.07
613.68	4.07
614.03	-1.47
614.38	2.26
614.73	-0.90
615.08	-3.95
615.43	-19.21
615.78	-12.54
616.13	-2.94
616.48	-23.73
616.83	-1.92
617.18	-27.23
617.53	-4.52
617.88	-22.49
618.23	-4.41
618.58	9.72
618.93	-12.66
619.28	7.12
619.63	-12.09
619.98	-3.62
620.33	-5.20
620.68	-15.25
621.03	-22.71
621.38	-9.04
621.73	-23.62
622.08	1.69
622.43	-20.11
622.78	-4.41
623.13	-15.48
623.48	3.84
623.82	-14.35
624.17	-17.51
624.52	-24.52
624.87	-22.03
625.22	-4.29
625.57	14.24
625.92	-7.91
626.27	-23.16
626.62	-15.37
626.97	-10.62
627.32	-14.35
627.66	-11.98
628.01	-0.56
628.36	-12.20
628.71	-27.80
629.06	3.50
629.41	2.49
629.76	-1.69
630.11	-12.99
630.45	-7.80
630.80	-18.08
631.15	-2.37
631.50	-15.93
631.85	-21.36
632.20	-26.21
632.54	2.15
632.89	-26.67
633.24	-8.14
633.59	-6.10
633.94	3.39
634.29	-3.95
634.63	2.82
634.98	4.63
635.33	-24.41
635.68	-16.61
636.02	-14.12
636.37	-27.23
636.72	-2.03
637.07	-11.98
637.42	-3.73
637.76	-8.36
638.11	-7.57
638.46	-9.94
638.81	7.68
639.15	1.58
639.50	-13.90
639.85	-2.15
640.20	-11.19
640.54	1.47
640.89	-1.58
641.24	-11.53
641.58	4.97
641.93	5.54
642.28	-6.21
642.63	-3.73
642.97	-13.22
643.32	-3.05
643.67	-2.49
644.01	-12.88
644.36	-16.50
644.71	-22.60
645.05	6.21
645.40	5.99
645.75	-10.85
646.09	-26.21
646.44	10.06
646.79	1.47
647.13	-5.08
647.48	0.68
647.83	-7.80
648.17	-9.60
648.52	-3.95
648.86	-12.66
649.21	-10.17
649.56	-15.14
649.90	-5.31
650.25	-3.84
650.60	-22.37
650.94	1.58
651.29	-4.63
651.63	11.64
651.98	-3.84
652.33	-3.62
652.67	-23.62
653.02	-1.36
653.36	-4.29
653.71	13.78
654.05	-3.50
654.40	-10.51
654.74	-16.38
655.09	-2.94
655.44	-9.27
655.78	-0.45
656.13	3.73
656.47	9.38
656.82	1.69
657.16	5.65
657.51	-14.46
657.85	-2.37
658.20	9.49
658.54	8.81
658.89	-7.12
659.23	0.11
659.58	14.80
659.92	-7.80
660.27	-15.03
660.61	-1.36
660.96	-5.76
661.30	8.93
661.65	-7.01
661.99	-14.46
662.33	9.15
662.68	-3.16
663.02	-8.70
663.37	11.86
663.71	3.16
664.06	-3.62
664.40	2.37
664.75	10.51
665.09	-4.52
665.43	3.16
665.78	-3.95
666.12	19.66
666.47	6.55
666.81	-4.29
667.15	9.94
667.50	6.33
667.84	18.98
668.19	3.05
668.53	2.37
668.87	-3.50
669.22	8.02
669.56	5.99
669.90	5.42
670.25	14.80
670.59	10.96
670.93	8.36
671.28	31.19
671.62	18.76
671.96	10.06
672.31	46.55
672.65	24.75
672.99	32.43
673.34	11.53
673.68	10.85
674.02	23.84
674.37	24.18
674.71	32.65
675.05	18.08
675.40	6.10
675.74	27.57
676.08	18.98
676.42	51.07
676.77	29.38
677.11	31.41
677.45	35.03
677.79	46.78
678.14	27.34
678.48	61.24
678.82	34.12
679.16	27.46
679.51	42.94
679.85	20.68
680.19	47.68
680.53	35.48
680.88	63.05
681.22	44.52
681.56	39.55
681.90	51.30
682.24	55.14
682.59	67.46
682.93	70.28
683.27	49.72
683.61	66.44
683.95	41.69
684.29	45.31
684.64	77.85
684.98	72.31
685.32	65.20
685.66	75.03
686.00	82.03
686.34	51.98
686.69	65.76
687.03	59.89
687.37	72.88
687.71	97.85
688.05	90.62
688.39	73.11
688.73	91.52
689.07	86.44
689.41	106.32
689.76	88.25
690.10	78.53
690.44	107.34
690.78	94.80
691.12	93.90
691.46	92.65
691.80	116.83
692.14	117.51
692.48	142.93
692.82	129.04
693.16	119.54
693.50	139.66
693.84	128.81
694.18	148.81
694.53	157.85
694.87	165.87
695.21	163.39
695.55	126.66
695.89	154.57
696.23	183.05
696.57	185.87
696.91	203.61
697.25	182.93
697.59	203.05
697.93	185.08
698.27	208.36
698.61	202.48
698.95	213.78
699.29	218.19
699.63	216.72
699.97	211.07
700.30	216.15
700.64	241.58
700.98	236.49
701.32	249.26
701.66	243.95
702.00	259.54
702.34	264.29
702.68	277.62
703.02	288.24
703.36	303.72
703.70	289.94
704.04	307.79
704.38	305.75
704.72	308.58
705.05	317.28
705.39	347.56
705.73	334.12
706.07	332.19
706.41	334.45
706.75	372.19
707.09	385.19
707.43	385.30
707.77	398.52
708.10	401.80
708.44	420.89
708.78	429.25
709.12	442.81
709.46	450.61
709.80	457.05
710.13	471.29
710.47	489.37
710.81	481.00
711.15	498.40
711.49	517.50
711.82	526.99
712.16	543.15
712.50	563.94
712.84	581.11
713.18	571.40
713.51	601.11
713.85	621.11
714.19	615.01
714.53	632.75
714.87	656.59
715.20	671.85
715.54	657.84
715.88	705.41
716.22	704.61
716.55	728.57
716.89	723.14
717.23	766.42
717.57	759.64
717.90	782.58
718.24	820.77
718.58	834.22
718.91	835.80
719.25	894.55
719.59	890.94
719.93	901.33
720.26	932.07
720.60	944.95
720.94	979.07
721.27	1007.88
721.61	1037.49
721.95	1032.85
722.28	1076.02
722.62	1089.46
722.96	1135.11
723.29	1161.10
723.63	1184.38
723.97	1219.18
724.30	1241.44
724.64	1247.31
724.97	1301.89
725.31	1321.55
725.65	1379.29
725.98	1378.04
726.32	1427.99
726.66	1474.09
726.99	1505.61
727.33	1531.82
727.66	1575.21
728.00	1605.27
728.33	1681.31
728.67	1696.57
729.01	1742.55
729.34	1756.00
729.68	1810.57
730.01	1854.64
730.35	1918.82
730.68	1977.12
731.02	1985.94
731.36	2049.78
731.69	2108.87
732.03	2158.70
732.36	2174.97
732.70	2218.47
733.03	2287.85
733.37	2352.14
733.70	2396.21
734.04	2458.24
734.37	2485.36
734.71	2560.16
735.04	2644.00
735.38	2676.88
735.71	2748.40
736.05	2815.75
736.38	2864.90
736.72	2914.50
737.05	2989.98
737.38	3024.44
737.72	3108.84
738.05	3192.57
738.39	3215.17
738.72	3289.52
739.06	3341.72
739.39	3421.83
739.73	3470.53
740.06	3572.79
740.39	3603.18
740.73	3744.20
741.06	3773.12
741.40	3825.10
741.73	3914.47
742.06	3967.13
742.40	4044.98
742.73	4104.52
743.07	4223.05
743.40	4313.56
743.73	4377.63
744.07	4402.14
744.40	4491.52
744.73	4591.18
745.07	4683.04
745.40	4734.45
745.73	4837.50
746.07	4927.78
746.40	5005.86
746.73	5071.84
747.07	5157.94
747.40	5215.91
747.73	5313.31
748.07	5369.69
748.40	5471.38
748.73	5593.53
749.07	5686.86
749.40	5749.11
749.73	5852.39
750.06	5887.75
750.40	5982.10
750.73	6076.79
751.06	6187.07
751.40	6296.22
751.73	6371.81
752.06	6510.22
752.39	6525.25
752.73	6634.85
753.06	6767.62
753.39	6814.62
753.72	6907.95
754.05	6977.67
754.39	7051.00
754.72	7203.43
755.05	7305.68
755.38	7349.64
755.72	7403.20
756.05	7508.05
756.38	7605.90
756.71	7652.00
757.04	7820.02
757.37	7834.94
757.71	7949.28
758.04	8034.48
758.37	8076.62
758.70	8147.47
759.03	8242.38
759.36	8402.04
759.70	8457.97
760.03	8485.54
760.36	8598.42
760.69	8698.98
761.02	8798.53
761.35	8835.47
761.68	8914.00
762.01	9007.56
762.35	9079.87
762.68	9080.55
763.01	9230.60
763.34	9232.98
763.67	9285.86
764.00	9356.14
764.33	9428.34
764.66	9405.85
764.99	9476.14
765.32	9501.90
765.65	9588.45
765.98	9727.54
766.31	9629.35
766.65	9629.46
766.98	9685.17
767.31	9651.27
767.64	9778.84
767.97	9688.90
768.30	9673.87
768.63	9741.21
768.96	9627.66
769.29	9733.87
769.62	9639.41
769.95	9729.46
770.28	9669.12
770.61	9593.19
770.94	9671.50
771.27	9662.91
771.60	9681.44
771.93	9600.88
772.26	9568.11
772.59	9535.57
772.92	9535.00
773.24	9517.04
773.57	9557.60
773.90	9398.28
774.23	9384.50
774.56	9336.14
774.89	9335.91
775.22	9172.19
775.55	9260.55
775.88	9111.17
776.21	9045.41
776.54	8981.80
776.87	8878.41
777.19	8812.88
777.52	8823.50
777.85	8658.08
778.18	8642.37
778.51	8511.64
778.84	8455.03
779.17	8404.41
779.50	8385.32
779.82	8221.70
780.15	8160.46
780.48	8092.44
780.81	7960.24
781.14	7899.34
781.47	7860.36
781.80	7705.45
782.12	7722.51
782.45	7577.43
782.78	7589.63
783.11	7458.79
783.44	7323.99
783.76	7309.64
784.09	7180.49
784.42	7076.09
784.75	7013.83
785.08	6887.39
785.40	6830.89
785.73	6754.62
786.06	6577.23
786.39	6576.32
786.71	6459.49
787.04	6404.58
787.37	6257.80
787.70	6183.57
788.02	6099.50
788.35	5984.14
788.68	5863.35
789.00	5762.67
789.33	5650.25
789.66	5578.16
789.99	5486.30
790.31	5383.93
790.64	5366.19
790.97	5215.34
791.29	5178.06
791.62	5080.66
791.95	4930.94
792.27	4879.98
792.60	4796.15
792.93	4719.99
793.25	4614.57
793.58	4571.97
793.91	4484.51
794.23	4349.94
794.56	4306.55
794.89	4224.63
795.21	4188.25
795.54	4071.98
795.87	4014.81
796.19	3941.48
796.52	3846.79
796.84	3777.53
797.17	3724.08
797.50	3665.44
797.82	3554.14
798.15	3524.09
798.47	3406.69
798.80	3368.72
799.12	3322.62
799.45	3226.92
799.78	3135.06
800.10	3075.40
800.43	3023.99
800.75	2935.74
801.08	2886.82
801.40	2800.27
801.73	2748.40
802.05	2683.66
802.38	2600.95
802.70	2559.14
803.03	2499.71
803.35	2430.90
803.68	2378.81
804.00	2301.52
804.33	2262.31
804.65	2186.95
804.98	2125.48
805.30	2084.35
805.63	2026.84
805.95	1987.63
806.28	1891.59
806.60	1821.65
806.93	1797.58
807.25	1755.32
807.58	1719.95
807.90	1656.45
808.22	1601.09
808.55	1572.73
808.87	1522.45
809.20	1470.47
809.52	1443.58
809.85	1391.38
810.17	1347.76
810.49	1317.48
810.82	1274.77
811.14	1270.14
811.47	1213.53
811.79	1154.09
812.11	1104.04
812.44	1091.61
812.76	1062.91
813.08	1006.53
813.41	991.27
813.73	936.59
814.05	894.78
814.38	888.56
814.70	852.86
815.02	838.74
815.35	817.27
815.67	783.48
815.99	765.40
816.32	729.47
816.64	700.09
816.96	689.36
817.29	671.39
817.61	660.55
817.93	660.21
818.26	642.92
818.58	583.15
818.90	574.22
819.22	555.01
819.55	537.05
819.87	501.46
820.19	515.47
820.51	504.96
820.84	455.81
821.16	458.86
821.48	443.49
821.80	421.23
822.13	416.03
822.45	419.20
822.77	394.90
823.09	383.61
823.41	380.67
823.74	357.39
824.06	338.64
824.38	367.00
824.70	308.13
825.02	311.52
825.35	317.28
825.67	309.03
825.99	287.79
826.31	282.25
826.63	289.37
826.95	261.35
827.27	257.17
827.60	262.82
827.92	242.25
828.24	249.82
828.56	248.13
828.88	217.73
829.20	224.40
829.52	204.51
829.84	210.16
830.17	209.26
830.49	188.13
830.81	180.00
831.13	167.57
831.45	176.38
831.77	171.75
832.09	176.49
832.41	149.60
832.73	149.83
833.05	165.98
833.37	155.70
833.69	131.63
834.01	140.34
834.33	125.42
834.65	114.69
834.97	129.94
835.29	129.83
835.61	118.75
835.94	141.01
836.26	122.14
836.58	123.73
836.90	99.21
837.21	99.43
837.53	116.72
837.85	98.87
838.17	96.16
838.49	97.17
838.81	99.55
839.13	101.35
839.45	95.70
839.77	95.36
840.09	73.56
840.41	82.37
840.73	74.24
841.05	67.23
841.37	82.26
841.69	69.60
842.01	54.91
842.33	68.81
842.65	55.25
842.96	38.87
843.28	62.82
843.60	63.39
843.92	59.77
844.24	66.10
844.56	46.67
844.88	50.51
845.20	43.28
845.52	51.86
845.83	57.85
846.15	38.87
846.47	67.68
846.79	32.32
847.11	24.52
847.43	31.98
847.74	46.33
848.06	35.25
848.38	45.08
848.70	40.79
849.02	35.03
849.33	-4.97
849.65	30.85
849.97	40.56
850.29	18.76
850.61	18.64
850.92	14.91
851.24	7.46
851.56	13.78
851.88	14.46
852.19	35.37
852.51	11.98
852.83	32.43
853.15	8.02
853.46	-5.88
853.78	14.91
854.10	20.56
854.42	30.06
854.73	7.68
855.05	-6.78
855.37	10.62
855.68	19.66
856.00	8.02
856.32	-14.58
856.63	-9.04
856.95	13.67
857.27	0.00
857.59	-9.04
857.90	-13.11
858.22	-21.36
858.53	6.44
858.85	2.26
859.17	14.80
859.48	6.21
859.80	-2.15
860.12	-10.73
860.43	4.75
860.75	4.52
861.07	1.92
861.38	-4.97
861.70	-1.36
862.01	-6.89
862.33	-15.37
862.65	-16.61
862.96	9.27
863.28	-13.78
863.59	1.69
863.91	-19.10
864.22	0.45
864.54	-4.18
864.86	8.59
865.17	-4.52
865.49	-2.03
865.80	12.54
866.12	-36.61
866.43	-14.58
866.75	1.47
867.06	5.54
867.38	-0.11
867.69	-6.78
868.01	-23.84
868.32	-20.68
868.64	6.55
868.95	-3.50
869.27	-4.41
869.58	-14.35
869.90	-11.64
870.21	-5.76
870.53	-4.18
870.84	9.83
871.15	-3.73
871.47	14.58
871.78	7.01
872.10	-9.72
872.41	-8.81
872.73	-7.91
873.04	1.36
873.36	-20.45
873.67	-10.85
873.98	-9.83
874.30	17.29
874.61	-15.25
874.93	-9.49
875.24	-12.77
875.55	-10.85
875.87	-1.02
876.18	-18.87
876.49	-9.04
876.81	-6.55
877.12	-18.76
877.43	-16.16
877.75	-8.36
878.06	21.81
878.37	-23.28
878.69	0.11
879.00	-8.47
879.31	3.50
879.63	10.40
879.94	-11.41
880.25	-2.82
880.57	-1.02
880.88	10.73
881.19	-0.34
881.50	0.45
881.82	-6.55
882.13	-9.49
882.44	-10.96
882.76	-24.86
883.07	8.93
883.38	-5.08
883.69	-11.86
884.01	-13.11
884.32	-10.51
884.63	-12.99
884.94	-19.66
885.25	-24.86
885.57	-0.79
885.88	0.23
886.19	-10.96
886.50	-13.56
886.81	-13.33
887.13	9.49
887.44	-2.82
887.75	7.46
888.06	-19.43
888.37	-8.70
888.69	-27.23
889.00	-15.25
889.31	0.56
889.62	-7.91
889.93	-3.50
890.24	9.94
890.55	-9.38
890.87	-13.45
891.18	14.24
891.49	-11.53
891.80	-15.14
892.11	-8.36
892.42	-5.65
892.73	-7.80
893.04	-5.99
893.35	-4.52
893.66	-8.81
893.98	-25.42
894.29	-11.53
894.60	-28.25
894.91	-8.47
895.22	-4.86
895.53	10.28
895.84	-3.50
896.15	-15.48
896.46	-2.03
896.77	-10.51
897.08	-18.64
897.39	-19.32
897.70	0.11
898.01	-11.75
898.32	-17.63
898.63	-8.14
898.94	-6.78
899.25	-2.60
899.56	-4.18
899.87	-12.66
900.18	-7.23
900.49	-4.07
900.80	-12.66
901.11	-14.12
901.42	-6.67
901.73	10.28
902.04	1.02
902.35	-18.76
902.66	-32.32
902.96	-4.07
903.27	-16.50
903.58	-2.37
903.89	-7.57
904.20	-4.86
904.51	-21.36
904.82	-2.03
905.13	-29.26
905.44	-19.66
905.75	-37.29
906.05	-14.69
906.36	-13.56
906.67	-18.19
906.98	-11.07
907.29	-3.05
907.60	-10.28
907.91	-10.06
908.21	-19.10
908.52	-13.22
908.83	-11.30
909.14	-5.20
909.45	-12.66
909.75	-31.52
910.06	6.78
910.37	7.34
910.68	-25.54
910.99	7.80
911.29	-2.82
911.60	-15.82
911.91	-12.43
912.22	-10.28
912.52	1.47
912.83	-5.42
913.14	-7.23
913.45	-8.81
913.75	-13.33
914.06	-5.88
914.37	-14.91
914.68	18.08
914.98	-17.29
915.29	-15.48
915.60	-10.17
915.91	-17.51
916.21	-13.22
916.52	-4.29
916.83	-14.91
917.13	-11.53
917.44	7.12
917.75	-7.91
918.05	-4.29
918.36	-2.26
918.67	-15.82
918.97	-6.67
919.28	0.45
919.59	-12.77
919.89	-15.59
920.20	11.30
920.50	-20.79
920.81	-34.80
921.12	-24.63
921.42	-5.31
921.73	-6.33
922.03	-19.43
922.34	-4.18
922.65	-7.68
922.95	-22.71
923.26	-5.08
923.56	-17.40
923.87	-25.20
924.18	-8.93
924.48	-26.67
924.79	-10.62
925.09	-6.67
925.40	2.71
925.70	-20.23
926.01	-13.22
926.31	3.28
926.62	-27.34
926.92	-16.27
927.23	-25.88
927.53	-20.56
927.84	-8.25
928.14	-18.64
928.45	6.44
928.75	0.11
929.06	-8.47
929.36	2.71
929.67	-10.17
929.97	-20.34
930.28	-0.34
930.58	6.44
930.89	-14.58
931.19	-19.66
931.49	-20.68
931.80	-40.90
932.10	-0.34
932.41	-17.63
932.71	-22.15
933.01	-0.90
933.32	2.26
933.62	-13.22
933.93	-6.78
934.23	0.56
934.53	-1.24
934.84	-4.29
935.14	-20.56
935.45	-16.16
935.75	-12.77
936.05	-10.62
936.36	-6.78
936.66	0.79
936.96	-14.91
937.27	-7.46
937.57	1.36
937.87	-16.95
938.18	-15.59
938.48	-1.13
938.78	-11.30
939.08	-31.52
939.39	-15.14
939.69	-0.68
939.99	-14.91
940.30	-2.26
940.60	14.80
940.90	1.58
941.20	-17.40
941.51	1.13
941.81	-3.62
942.11	-19.10
942.41	-15.71
942.72	-5.65
943.02	-23.62
943.32	1.36
943.62	-17.17
943.93	-11.64
944.23	-0.34
944.53	-8.14
944.83	-17.74
945.13	0.45
945.44	-13.45
945.74	-6.55
946.04	-27.46
946.34	3.16
946.64	-12.77
946.94	-7.34
947.25	0.00
947.55	-5.42
947.85	-4.75
948.15	-4.07
948.45	-15.48
948.75	-34.46
949.05	-36.27
949.35	-19.32
949.66	-3.39
949.96	3.73
950.26	-12.32
950.56	3.62
950.86	-6.10
951.16	-18.42
951.46	-9.04
951.76	-9.49
952.06	-9.49
952.36	-9.83
952.66	-2.82
952.96	6.55
953.26	-29.94
953.57	-15.71
953.87	-17.74
954.17	5.99
954.47	-7.12
954.77	-22.49
955.07	1.92
955.37	0.56
955.67	-0.56
955.97	2.49
956.27	4.97
956.57	-14.12
956.87	-19.10
957.17	-15.48
957.47	0.79
957.77	2.26
958.06	-11.98
958.36	-9.72
958.66	5.08
958.96	-10.17
959.26	-25.20
959.56	-37.85
959.86	-12.09
960.16	-1.92
960.46	-22.37
960.76	-1.47
961.06	-22.15
961.36	-22.94
961.66	7.68
961.95	-4.75
962.25	-0.34
962.55	-10.06
962.85	14.35
963.15	-8.36
963.45	-5.20
963.75	-2.94
964.05	-12.32
964.34	-5.54
964.64	-17.97
964.94	-23.50
965.24	-25.20
965.54	-9.04
965.83	-3.84
966.13	-3.62
966.43	-18.87
966.73	7.57
967.03	-12.77
967.32	-15.03
967.62	-5.76
967.92	-11.98
968.22	-6.44
968.52	-18.08
968.81	-44.86
969.11	-15.25
969.41	-18.19
969.71	-16.61
970.00	1.81
970.30	11.86
970.60	3.95
970.90	-9.27
971.19	0.90
971.49	-14.12
971.79	-27.91
972.08	-9.15
972.38	-25.31
972.68	-19.89
972.97	-8.70
973.27	-13.33
973.57	-20.79
973.87	-2.03
974.16	-20.45
974.46	-0.34
974.75	-7.34
975.05	-13.56
975.35	-16.04
975.64	-21.81
975.94	-14.91
976.24	0.11
976.53	-14.91
976.83	5.76
977.13	-17.40
977.42	-2.49
977.72	-3.05
978.01	-28.47
978.31	-17.40
978.60	-16.27
978.90	-7.68
979.20	-10.62
979.49	-8.25
979.79	-18.08
980.08	-14.58
980.38	-28.25
980.67	-11.86
980.97	-17.06
981.26	-13.33
981.56	-7.01
981.86	-3.95
982.15	-18.76
982.45	-6.44
982.74	-6.67
983.04	-15.25
983.33	-15.48
983.63	-13.78
983.92	-6.21
984.21	-10.17
984.51	-16.50
984.80	-4.75
985.10	-25.99
985.39	-21.81
985.69	-8.70
985.98	-22.26
986.28	-21.24
986.57	-2.94
986.87	3.16
987.16	-20.68
987.45	-8.81
987.75	-21.58
988.04	-3.84
988.34	-7.01
988.63	-14.35
988.92	-6.33
989.22	-13.11
989.51	-12.43
989.80	-26.67
990.10	-0.68
990.39	-14.80
990.69	-19.55
990.98	-28.36
991.27	-10.28
991.57	-8.02
991.86	1.47
992.15	-6.44
992.45	-27.91
992.74	-21.24
993.03	-17.17
993.33	-9.27
993.62	-6.33
993.91	-11.64
994.20	-9.38
994.50	-20.68
994.79	-6.10
995.08	-12.99
995.37	-3.50
995.67	-2.26
995.96	-6.55
996.25	-2.82
996.54	-1.69
996.84	-2.71
997.13	-21.47
997.42	-21.81
997.71	-22.15
998.01	-9.83
998.30	-16.72
998.59	3.39
998.88	-26.44
999.17	-6.10
999.47	1.58
999.76	-7.80
1000.05	-7.68
1000.34	4.52
1000.63	-13.90
1000.92	-10.62
1001.22	2.71
1001.51	-3.39
1001.80	-23.39
1002.09	-12.99
1002.38	-5.20
1002.67	-13.67
1002.96	-11.64
1003.26	-9.15
1003.55	1.02
1003.84	-1.58
1004.13	-14.12
1004.42	-6.67
1004.71	-31.19
1005.00	-3.16
1005.29	-12.20
1005.58	-18.76
1005.87	-15.37
1006.16	-14.80
1006.45	-10.73
1006.74	-16.27
1007.04	-6.10
1007.33	9.04
1007.62	-33.33
1007.91	1.36
1008.20	-12.54
1008.49	-18.19
1008.78	-6.67
1009.07	-6.10
1009.36	-1.58
1009.65	-9.04
1009.94	-30.17
1010.23	-6.55
1010.52	-27.57
1010.81	-7.23
1011.10	-16.72
1011.38	-7.91
1011.67	-24.52
1011.96	-1.58
1012.25	-13.56
1012.54	-16.38
1012.83	-10.40
1013.12	-17.06
1013.41	-33.90
1013.70	-14.01
1013.99	-18.30
1014.28	-2.26
1014.57	-12.77
1014.86	-12.77
1015.14	-1.02
1015.43	-28.13
1015.72	-13.33
1016.01	-23.50
1016.30	-13.67
1016.59	-17.63
1016.88	-5.99
1017.16	-16.04
1017.45	-12.77
1017.74	-23.28
1018.03	-12.88
1018.32	-11.41
1018.61	-18.42
1018.89	-4.18
1019.18	-19.32
1019.47	-13.90
1019.76	-11.75
1020.05	-11.30
1020.33	-11.75
1020.62	-7.68
1020.91	9.04
1021.20	-5.65
1021.48	-11.64
1021.77	-0.68
1022.06	-10.28
1022.35	-19.89
1022.63	-4.07
1022.92	-22.26
1023.21	19.89
1023.50	-22.15
1023.78	-24.41
1024.07	6.44
1024.36	-9.27
1024.64	-16.61
1024.93	-14.46
1025.22	-29.60
1025.50	-13.33
1025.79	1.24
1026.08	-5.31
1026.36	-1.47
1026.65	-17.74
1026.94	1.02
1027.22	-18.98
1027.51	-14.91
1027.80	-9.72
1028.08	17.06
1028.37	-15.93
1028.66	-7.34
1028.94	2.49
>>>>>End Processed Spectral Data<<<<<
