SpectraSuite Data File
++++++++++++++++++++++++++++++++++++
Date: Thu Jun 15 11:41:50 BST 2017
User: Eng0000912
Dark Spectrum Present: Yes
Reference Spectrum Present: No
Number of Sampled Component Spectra: 1
Spectrometers: USB2+H04851
Integration Time (usec): 100000 (USB2+H04851)
Spectra Averaged: 20 (USB2+H04851)
Boxcar Smoothing: 0 (USB2+H04851)
Correct for Electrical Dark: No (USB2+H04851)
Strobe/Lamp Enabled: No (USB2+H04851)
Correct for Detector Non-linearity: No (USB2+H04851)
Correct for Stray Light: No (USB2+H04851)
Number of Pixels in Processed Spectrum: 2048
>>>>>Begin Processed Spectral Data<<<<<
340.07	-14.69
340.45	-14.69
340.82	-14.69
341.20	-21.47
341.58	-23.05
341.96	-23.16
342.34	-25.08
342.72	-4.52
343.10	-40.79
343.48	-33.11
343.85	-46.44
344.23	-22.03
344.61	-9.15
344.99	-14.58
345.37	-14.35
345.75	-31.41
346.13	-35.25
346.50	-18.87
346.88	-19.21
347.26	-28.25
347.64	-41.35
348.02	-37.29
348.40	-33.78
348.77	-25.99
349.15	-30.17
349.53	-25.54
349.91	-23.16
350.29	-14.24
350.66	-32.32
351.04	-29.94
351.42	-13.56
351.80	-30.62
352.18	-22.94
352.55	-20.11
352.93	-17.74
353.31	-22.26
353.69	-25.54
354.07	-16.16
354.44	-15.71
354.82	-33.11
355.20	-28.70
355.58	-6.78
355.95	-15.59
356.33	-31.64
356.71	-30.17
357.09	-57.85
357.46	-33.45
357.84	-21.58
358.22	-21.24
358.60	-28.81
358.97	-26.78
359.35	-18.08
359.73	-10.85
360.10	-8.25
360.48	-19.89
360.86	-31.52
361.24	-8.59
361.61	-20.90
361.99	-37.40
362.37	-40.34
362.74	-34.91
363.12	-20.23
363.50	-49.49
363.87	-20.11
364.25	-25.42
364.63	-45.08
365.01	-34.80
365.38	-27.34
365.76	-14.80
366.14	-18.42
366.51	-26.10
366.89	-38.19
367.27	-21.81
367.64	-0.90
368.02	-35.71
368.39	-22.26
368.77	-32.88
369.15	-37.06
369.52	-19.43
369.90	-26.21
370.28	-33.11
370.65	-39.89
371.03	-26.21
371.40	-30.17
371.78	-24.41
372.16	-46.10
372.53	-14.46
372.91	-7.68
373.28	-13.78
373.66	-23.50
374.04	-36.38
374.41	-20.79
374.79	-31.19
375.16	-23.39
375.54	-19.55
375.92	-35.14
376.29	-28.70
376.67	-23.28
377.04	-19.66
377.42	-22.03
377.79	-15.25
378.17	-30.28
378.55	-20.34
378.92	-7.80
379.30	-24.29
379.67	-32.54
380.05	-10.62
380.42	-10.96
380.80	-28.13
381.17	-30.39
381.55	-12.43
381.92	-29.60
382.30	-55.59
382.67	-30.06
383.05	-23.84
383.42	-31.41
383.80	-35.93
384.17	-8.47
384.55	-14.69
384.92	-34.58
385.30	-36.27
385.67	-23.28
386.05	-23.95
386.42	-22.03
386.80	-12.09
387.17	-36.38
387.55	-31.19
387.92	-8.02
388.30	-21.13
388.67	-19.55
389.04	-42.60
389.42	-22.26
389.79	-27.68
390.17	-14.24
390.54	-21.36
390.92	-19.66
391.29	-22.37
391.67	-2.49
392.04	-17.97
392.41	-19.10
392.79	-40.79
393.16	-36.38
393.54	-37.85
393.91	-24.97
394.28	-25.20
394.66	-34.12
395.03	-28.81
395.41	-36.27
395.78	-13.45
396.15	-26.55
396.53	-39.21
396.90	-25.76
397.28	-15.82
397.65	-23.28
398.02	-14.12
398.40	-23.50
398.77	-23.28
399.14	-28.70
399.52	-28.13
399.89	-31.86
400.26	-25.65
400.64	-24.63
401.01	-12.43
401.38	-8.81
401.76	-19.43
402.13	-10.40
402.50	-1.47
402.88	-26.10
403.25	-11.19
403.62	-34.01
404.00	-11.41
404.37	-27.46
404.74	-33.22
405.12	-48.70
405.49	-34.01
405.86	-23.62
406.23	-38.87
406.61	-24.86
406.98	-34.46
407.35	-36.38
407.73	-35.37
408.10	8.59
408.47	-30.96
408.84	-16.84
409.22	-25.08
409.59	-20.90
409.96	-31.64
410.33	-29.83
410.71	-25.65
411.08	-11.53
411.45	-18.53
411.82	-20.23
412.20	-28.13
412.57	-13.22
412.94	-5.54
413.31	-29.94
413.68	-31.98
414.06	-35.71
414.43	-26.67
414.80	-29.38
415.17	-7.91
415.55	-26.67
415.92	-14.46
416.29	-17.97
416.66	-24.07
417.03	-20.23
417.40	-25.08
417.78	-26.78
418.15	-8.93
418.52	-15.71
418.89	-31.41
419.26	-11.30
419.63	-14.80
420.01	-33.45
420.38	-16.27
420.75	-27.23
421.12	-28.70
421.49	-15.03
421.86	-5.65
422.23	-16.16
422.61	-20.68
422.98	-19.55
423.35	-24.75
423.72	-23.39
424.09	-27.34
424.46	-8.25
424.83	-44.18
425.20	-28.25
425.58	-8.47
425.95	-20.00
426.32	-36.04
426.69	-27.00
427.06	-25.20
427.43	-23.95
427.80	-24.41
428.17	-32.43
428.54	-11.64
428.91	-23.50
429.28	-16.04
429.65	-24.07
430.02	-13.22
430.40	-31.30
430.77	-21.47
431.14	-28.59
431.51	-20.68
431.88	-19.55
432.25	-19.89
432.62	-24.75
432.99	-36.95
433.36	-21.81
433.73	-26.67
434.10	-24.75
434.47	-19.43
434.84	-21.58
435.21	-11.98
435.58	0.45
435.95	-3.28
436.32	-25.65
436.69	-39.43
437.06	-19.55
437.43	-32.88
437.80	-28.02
438.17	-34.91
438.54	-24.63
438.91	4.52
439.28	-1.13
439.65	-34.35
440.02	-11.41
440.39	-29.49
440.76	-24.75
441.13	-13.22
441.49	-22.03
441.86	-31.30
442.23	-14.24
442.60	-38.19
442.97	-9.04
443.34	-29.49
443.71	-25.76
444.08	-40.56
444.45	-8.25
444.82	-27.68
445.19	-17.63
445.56	-34.46
445.93	-6.89
446.29	-18.64
446.66	-35.37
447.03	-24.63
447.40	-7.68
447.77	-23.84
448.14	-33.11
448.51	-17.29
448.88	1.13
449.24	-2.60
449.61	-46.55
449.98	-13.90
450.35	-34.69
450.72	-16.95
451.09	-21.69
451.46	-2.15
451.82	-11.53
452.19	-34.58
452.56	-31.75
452.93	-16.72
453.30	-22.49
453.67	-7.80
454.03	-37.85
454.40	-31.19
454.77	-25.20
455.14	-32.20
455.51	-25.20
455.87	-18.98
456.24	3.50
456.61	-14.01
456.98	-26.67
457.35	-31.19
457.71	-26.55
458.08	-32.54
458.45	-20.23
458.82	-13.67
459.19	-29.26
459.55	-23.73
459.92	-19.10
460.29	-19.43
460.66	-20.23
461.02	-14.91
461.39	-18.87
461.76	-15.93
462.13	-23.95
462.49	-20.11
462.86	-19.32
463.23	-25.54
463.59	-26.55
463.96	-17.40
464.33	-11.86
464.70	-14.01
465.06	-18.98
465.43	-21.92
465.80	-8.59
466.16	-26.89
466.53	-36.72
466.90	-27.46
467.26	-28.81
467.63	-18.42
468.00	-15.03
468.36	-26.44
468.73	-18.30
469.10	-22.49
469.46	-12.43
469.83	-31.98
470.20	-39.89
470.56	-34.35
470.93	-17.51
471.30	-26.33
471.66	-16.27
472.03	-10.51
472.40	-6.44
472.76	-15.71
473.13	-43.16
473.50	-25.20
473.86	-18.64
474.23	-41.35
474.59	-13.45
474.96	-42.37
475.33	-28.70
475.69	-36.04
476.06	-28.13
476.42	-16.27
476.79	-24.63
477.16	-21.58
477.52	-30.06
477.89	-22.03
478.25	-6.33
478.62	-24.63
478.98	-17.40
479.35	-1.81
479.72	-32.20
480.08	-11.07
480.45	-24.18
480.81	-26.33
481.18	-28.13
481.54	-40.68
481.91	-31.98
482.27	-33.56
482.64	-40.56
483.00	-22.60
483.37	-25.99
483.73	-30.85
484.10	-23.16
484.46	-25.65
484.83	6.89
485.19	-24.86
485.56	-18.08
485.92	-11.19
486.29	-33.67
486.65	-24.52
487.02	-24.97
487.38	-18.64
487.75	-23.62
488.11	-31.86
488.48	-35.37
488.84	-43.50
489.21	-22.03
489.57	-40.45
489.94	-34.91
490.30	-0.56
490.66	-39.10
491.03	-26.67
491.39	0.56
491.76	-25.31
492.12	-37.74
492.49	-23.73
492.85	-25.20
493.21	-14.80
493.58	-15.25
493.94	-0.00
494.31	-23.73
494.67	-18.08
495.03	-17.85
495.40	-26.10
495.76	-35.71
496.13	-12.77
496.49	-9.49
496.85	-9.15
497.22	-18.87
497.58	-27.46
497.94	-8.25
498.31	-0.23
498.67	-29.49
499.04	-5.76
499.40	-28.02
499.76	-20.90
500.13	-25.31
500.49	-23.39
500.85	-47.00
501.22	-17.29
501.58	-21.47
501.94	-3.73
502.31	-9.83
502.67	5.08
503.03	-25.08
503.40	-32.43
503.76	-25.76
504.12	-10.96
504.48	-16.50
504.85	-15.93
505.21	-32.32
505.57	-39.32
505.94	-25.88
506.30	-15.48
506.66	-21.24
507.02	-50.28
507.39	-31.75
507.75	-35.48
508.11	-29.83
508.47	-13.22
508.84	-25.65
509.20	-19.77
509.56	-26.55
509.92	-25.54
510.29	-30.62
510.65	-17.97
511.01	-27.23
511.37	-38.87
511.74	-12.66
512.10	-14.46
512.46	-17.40
512.82	-20.56
513.18	-25.76
513.55	-0.56
513.91	-12.77
514.27	-20.00
514.63	-31.19
514.99	-22.15
515.35	-21.36
515.72	-34.80
516.08	-18.53
516.44	-34.35
516.80	-15.71
517.16	-24.52
517.52	-23.16
517.89	-16.72
518.25	-47.00
518.61	-30.39
518.97	-30.28
519.33	-18.08
519.69	2.03
520.05	-23.50
520.42	-42.03
520.78	-42.71
521.14	-25.54
521.50	-39.66
521.86	-29.26
522.22	-8.36
522.58	-3.05
522.94	-36.16
523.30	-16.61
523.67	-16.50
524.03	-32.54
524.39	-26.55
524.75	-20.11
525.11	-19.10
525.47	-17.40
525.83	-18.76
526.19	-12.32
526.55	-10.62
526.91	-6.10
527.27	-16.95
527.63	-22.82
527.99	-29.04
528.35	-17.63
528.71	-28.47
529.07	-19.89
529.43	-6.44
529.79	-25.99
530.15	-5.76
530.51	-39.66
530.87	-16.50
531.23	0.00
531.59	-20.79
531.95	-22.94
532.31	-44.74
532.67	-24.86
533.03	-35.93
533.39	-21.47
533.75	-3.28
534.11	-37.40
534.47	-16.04
534.83	-16.27
535.19	-1.47
535.55	-13.33
535.91	-12.20
536.27	-32.65
536.63	-25.54
536.99	-23.84
537.35	-36.72
537.71	-16.04
538.07	-25.20
538.43	-18.87
538.79	-30.28
539.15	-7.34
539.51	-22.37
539.86	-29.60
540.22	-20.56
540.58	-34.24
540.94	-27.12
541.30	-19.77
541.66	-33.11
542.02	-16.27
542.38	-15.82
542.74	-20.68
543.09	-11.64
543.45	-35.25
543.81	-14.24
544.17	-23.05
544.53	-37.40
544.89	-15.59
545.25	-3.73
545.60	-20.23
545.96	-30.62
546.32	-21.92
546.68	-24.18
547.04	-8.14
547.40	-13.45
547.75	-22.82
548.11	-32.32
548.47	-23.62
548.83	-25.42
549.19	-21.13
549.55	-14.91
549.90	-20.23
550.26	-17.51
550.62	-19.55
550.98	-34.69
551.34	-35.37
551.69	-23.28
552.05	-33.22
552.41	-40.56
552.77	-30.17
553.12	-31.52
553.48	-5.20
553.84	-18.53
554.20	-18.87
554.55	-28.47
554.91	-8.70
555.27	-42.26
555.63	-13.33
555.98	-14.01
556.34	-28.47
556.70	-17.63
557.05	-21.24
557.41	-29.15
557.77	-25.65
558.13	-22.49
558.48	-18.64
558.84	-26.33
559.20	-2.94
559.55	-13.90
559.91	-19.21
560.27	-27.46
560.62	-9.49
560.98	-17.06
561.34	4.75
561.69	-8.93
562.05	-16.38
562.41	-14.80
562.76	-19.77
563.12	-8.81
563.48	-5.08
563.83	-33.45
564.19	-26.55
564.55	-23.39
564.90	-3.95
565.26	-33.45
565.62	-23.28
565.97	-33.78
566.33	-0.45
566.68	-23.39
567.04	-24.75
567.40	-1.58
567.75	-15.71
568.11	-9.60
568.46	-32.20
568.82	-17.06
569.18	-12.54
569.53	-16.27
569.89	-12.88
570.24	2.37
570.60	-12.77
570.95	1.58
571.31	1.02
571.66	9.94
572.02	17.51
572.38	17.51
572.73	48.70
573.09	27.68
573.44	62.15
573.80	33.90
574.15	21.58
574.51	23.39
574.86	42.48
575.22	51.07
575.57	30.62
575.93	25.20
576.28	45.42
576.64	26.44
576.99	59.66
577.35	31.41
577.70	20.68
578.06	26.21
578.41	30.39
578.77	13.90
579.12	6.33
579.48	31.52
579.83	16.72
580.18	-11.30
580.54	-0.23
580.89	12.66
581.25	6.67
581.60	-4.97
581.96	-32.20
582.31	-18.98
582.67	-20.00
583.02	-7.91
583.37	-24.29
583.73	-29.49
584.08	-18.30
584.44	-17.06
584.79	-10.28
585.14	-10.28
585.50	-17.17
585.85	-33.11
586.21	-23.84
586.56	-15.93
586.91	-36.04
587.27	-23.16
587.62	-22.94
587.97	-18.19
588.33	-15.71
588.68	-18.64
589.03	-24.86
589.39	-28.59
589.74	-14.58
590.09	-22.37
590.45	-16.16
590.80	-8.02
591.15	-9.94
591.51	-30.28
591.86	-16.16
592.21	-27.57
592.57	-31.30
592.92	-10.17
593.27	4.86
593.63	-39.10
593.98	-23.73
594.33	-22.94
594.69	-15.59
595.04	-11.07
595.39	-9.60
595.74	-4.07
596.10	-13.90
596.45	-25.20
596.80	-28.70
597.15	-31.86
597.51	-16.16
597.86	-1.81
598.21	-12.54
598.56	4.97
598.92	-15.93
599.27	-15.93
599.62	-9.38
599.97	-26.44
600.32	4.75
600.68	-6.21
601.03	3.28
601.38	-9.60
601.73	-0.79
602.09	-29.83
602.44	-14.24
602.79	-18.76
603.14	-9.49
603.49	-16.16
603.84	-28.02
604.20	-24.75
604.55	-13.78
604.90	-18.53
605.25	-16.50
605.60	-27.80
605.95	-30.62
606.31	-18.53
606.66	4.07
607.01	-4.18
607.36	-14.91
607.71	-15.93
608.06	-19.77
608.41	-34.69
608.76	-22.26
609.12	-11.19
609.47	-22.71
609.82	-20.23
610.17	-5.99
610.52	-16.27
610.87	3.73
611.22	-11.98
611.57	-22.26
611.92	-15.82
612.27	-2.71
612.62	-25.88
612.98	-9.72
613.33	-23.28
613.68	-11.07
614.03	-6.10
614.38	-9.04
614.73	-14.69
615.08	-28.02
615.43	-12.66
615.78	-32.54
616.13	-29.49
616.48	-8.02
616.83	-12.43
617.18	-34.35
617.53	-19.89
617.88	-27.23
618.23	-16.72
618.58	-5.76
618.93	-17.97
619.28	-0.23
619.63	-41.35
619.98	-23.73
620.33	-6.44
620.68	-11.64
621.03	-26.67
621.38	-9.04
621.73	-30.39
622.08	1.02
622.43	-11.64
622.78	-21.24
623.13	-26.10
623.48	-6.44
623.82	-12.88
624.17	-34.58
624.52	-33.45
624.87	-5.54
625.22	-32.99
625.57	-19.32
625.92	-11.53
626.27	-32.77
626.62	-20.23
626.97	-10.62
627.32	-29.04
627.66	-21.02
628.01	-14.58
628.36	-25.65
628.71	-24.07
629.06	-10.73
629.41	-21.13
629.76	-43.84
630.11	-20.11
630.45	-9.72
630.80	-26.55
631.15	-12.32
631.50	-8.59
631.85	-30.73
632.20	-17.40
632.54	-22.15
632.89	-22.71
633.24	-0.90
633.59	-30.17
633.94	-17.40
634.29	-13.56
634.63	-25.88
634.98	-9.38
635.33	-34.58
635.68	-15.93
636.02	-20.11
636.37	-43.28
636.72	-4.86
637.07	-11.41
637.42	-18.42
637.76	-35.93
638.11	-10.85
638.46	-25.99
638.81	-3.84
639.15	-11.86
639.50	-16.72
639.85	-11.98
640.20	-11.75
640.54	-10.51
640.89	-12.32
641.24	-11.19
641.58	-7.34
641.93	-25.54
642.28	-9.15
642.63	-28.25
642.97	-30.96
643.32	-4.29
643.67	-6.10
644.01	-28.93
644.36	-24.97
644.71	-16.27
645.05	-13.56
645.40	-1.13
645.75	-25.42
646.09	-29.49
646.44	-9.83
646.79	-20.11
647.13	-19.43
647.48	-10.73
647.83	2.26
648.17	-17.29
648.52	-21.24
648.86	-8.14
649.21	-17.51
649.56	-13.11
649.90	1.02
650.25	-9.60
650.60	-9.83
650.94	-14.91
651.29	-15.71
651.63	0.45
651.98	4.75
652.33	-27.80
652.67	-22.82
653.02	-27.00
653.36	-16.72
653.71	-2.82
654.05	-16.95
654.40	-9.72
654.74	-16.61
655.09	-5.99
655.44	-11.53
655.78	-13.78
656.13	-23.73
656.47	-8.81
656.82	-17.85
657.16	-19.66
657.51	-18.42
657.85	-22.03
658.20	-3.16
658.54	-7.91
658.89	-4.18
659.23	-7.91
659.58	8.93
659.92	-20.56
660.27	-28.47
660.61	-23.05
660.96	-21.13
661.30	-4.86
661.65	-18.30
661.99	-3.84
662.33	10.06
662.68	-8.81
663.02	-11.64
663.37	15.59
663.71	19.77
664.06	17.74
664.40	7.46
664.75	1.81
665.09	1.36
665.43	12.77
665.78	-10.28
666.12	4.41
666.47	9.04
666.81	17.51
667.15	-4.18
667.50	10.51
667.84	27.23
668.19	8.14
668.53	18.08
668.87	4.41
669.22	6.10
669.56	20.45
669.90	21.47
670.25	8.70
670.59	25.65
670.93	15.93
671.28	32.32
671.62	32.99
671.96	34.46
672.31	45.99
672.65	39.89
672.99	33.22
673.34	37.85
673.68	26.89
674.02	52.20
674.37	42.71
674.71	44.29
675.05	40.11
675.40	47.23
675.74	44.18
676.08	42.94
676.42	63.95
676.77	54.24
677.11	39.10
677.45	52.77
677.79	72.20
678.14	48.93
678.48	78.53
678.82	70.51
679.16	61.92
679.51	77.17
679.85	72.31
680.19	75.25
680.53	82.03
680.88	96.72
681.22	92.09
681.56	90.51
681.90	80.00
682.24	85.20
682.59	82.37
682.93	104.18
683.27	96.83
683.61	100.34
683.95	79.66
684.29	89.26
684.64	112.65
684.98	117.29
685.32	110.17
685.66	125.19
686.00	136.15
686.34	97.74
686.69	129.94
687.03	120.34
687.37	131.07
687.71	151.63
688.05	149.26
688.39	156.38
688.73	159.54
689.07	144.52
689.41	163.39
689.76	162.03
690.10	162.03
690.44	174.35
690.78	178.87
691.12	186.32
691.46	178.30
691.80	212.88
692.14	210.95
692.48	210.84
692.82	208.70
693.16	223.95
693.50	224.29
693.84	231.07
694.18	241.35
694.53	256.94
694.87	263.38
695.21	262.48
695.55	265.19
695.89	278.98
696.23	301.12
696.57	303.83
696.91	297.28
697.25	296.38
697.59	317.84
697.93	311.18
698.27	342.02
698.61	337.84
698.95	352.53
699.29	361.23
699.63	361.80
699.97	370.05
700.30	397.50
700.64	394.90
700.98	408.46
701.32	433.89
701.66	413.77
702.00	444.40
702.34	448.69
702.68	477.28
703.02	513.21
703.36	503.94
703.70	517.95
704.04	533.09
704.38	547.78
704.72	552.87
705.05	564.39
705.39	601.11
705.73	600.78
706.07	606.65
706.41	624.28
706.75	640.55
707.09	664.73
707.43	677.27
707.77	692.07
708.10	691.62
708.44	716.70
708.78	756.25
709.12	780.66
709.46	798.17
709.80	790.26
710.13	830.15
710.47	823.71
710.81	854.55
711.15	874.55
711.49	879.30
711.82	915.00
712.16	937.15
712.50	952.29
712.84	991.16
713.18	994.32
713.51	1034.44
713.85	1055.68
714.19	1069.92
714.53	1107.54
714.87	1166.64
715.20	1151.72
715.54	1164.49
715.88	1218.95
716.22	1245.96
716.55	1294.99
716.89	1297.82
717.23	1325.50
717.57	1357.59
717.90	1395.44
718.24	1409.00
718.58	1450.24
718.91	1497.25
719.25	1524.93
719.59	1565.27
719.93	1600.52
720.26	1623.35
720.60	1678.26
720.94	1731.93
721.27	1763.46
721.61	1773.51
721.95	1842.10
722.28	1869.89
722.62	1948.76
722.96	1969.89
723.29	2020.96
723.63	2061.87
723.97	2111.58
724.30	2157.12
724.64	2211.58
724.97	2297.34
725.31	2338.47
725.65	2406.49
725.98	2445.25
726.32	2494.06
726.66	2578.80
726.99	2654.17
727.33	2704.67
727.66	2786.59
728.00	2849.76
728.33	2942.86
728.67	2998.57
729.01	3055.74
729.34	3134.27
729.68	3220.03
730.01	3282.17
730.35	3350.87
730.68	3437.31
731.02	3516.74
731.36	3629.62
731.69	3694.59
732.03	3814.59
732.36	3888.71
732.70	3934.59
733.03	4050.97
733.37	4153.34
733.70	4254.80
734.04	4357.74
734.37	4483.16
734.71	4573.55
735.04	4706.66
735.38	4763.94
735.71	4868.57
736.05	5026.53
736.38	5070.38
736.72	5180.77
737.05	5287.43
737.38	5404.49
737.72	5496.24
738.05	5630.25
738.39	5735.78
738.72	5880.18
739.06	5956.11
739.39	6101.87
739.73	6204.13
740.06	6312.38
740.39	6463.56
740.73	6597.79
741.06	6727.05
741.40	6811.23
741.73	7001.74
742.06	7109.98
742.40	7233.48
742.73	7349.98
743.07	7458.90
743.40	7651.10
743.73	7775.39
744.07	7922.05
744.40	8093.80
744.73	8228.15
745.07	8360.35
745.40	8505.99
745.73	8630.96
746.07	8845.64
746.40	8942.14
746.73	9125.30
747.07	9215.58
747.40	9362.24
747.73	9571.27
748.07	9621.22
748.40	9846.07
748.73	9994.77
749.07	10216.34
749.40	10353.40
749.73	10566.61
750.06	10623.45
750.40	10793.39
750.73	10994.51
751.06	11145.47
751.40	11339.25
751.73	11533.03
752.06	11690.09
752.39	11847.26
752.73	12050.87
753.06	12219.79
753.39	12372.22
753.72	12526.90
754.05	12691.98
754.39	12804.07
754.72	13022.82
755.05	13255.70
755.38	13343.72
755.72	13485.75
756.05	13614.22
756.38	13883.93
756.71	13985.06
757.04	14202.34
757.37	14350.13
757.71	14577.58
758.04	14585.49
758.37	14845.49
758.70	14875.99
759.03	15148.19
759.36	15291.80
759.70	15519.82
760.03	15619.36
760.36	15795.97
760.69	16037.66
761.02	16133.14
761.35	16248.73
761.68	16431.32
762.01	16572.56
762.35	16661.48
762.68	16785.55
763.01	16983.28
763.34	17069.83
763.67	17202.71
764.00	17251.41
764.33	17448.58
764.66	17345.19
764.99	17505.08
765.32	17667.45
765.65	17850.94
765.98	18050.15
766.31	17878.63
766.65	17927.10
766.98	17955.91
767.31	17997.27
767.64	18164.72
767.97	18096.93
768.30	18032.97
768.63	18265.73
768.96	17939.53
769.29	18094.78
769.62	18047.32
769.95	18133.53
770.28	17977.27
770.61	17947.10
770.94	18040.77
771.27	18067.21
771.60	18068.34
771.93	17956.82
772.26	17911.62
772.59	17827.10
772.92	17840.66
773.24	17717.73
773.57	17825.86
773.90	17601.23
774.23	17601.23
774.56	17494.34
774.89	17430.62
775.22	17225.65
775.55	17268.59
775.88	16971.76
776.21	16933.79
776.54	16759.22
776.87	16511.77
777.19	16507.81
777.52	16516.51
777.85	16185.90
778.18	16092.23
778.51	15887.04
778.84	15780.94
779.17	15715.07
779.50	15609.87
779.82	15344.57
780.15	15163.90
780.48	14964.69
780.81	14808.09
781.14	14750.57
781.47	14594.19
781.80	14294.88
782.12	14257.25
782.45	14012.17
782.78	13996.13
783.11	13726.42
783.44	13510.38
783.76	13437.50
784.09	13149.26
784.42	13006.10
784.75	12828.36
785.08	12712.21
785.40	12454.47
785.73	12423.97
786.06	12053.69
786.39	12027.25
786.71	11867.26
787.04	11682.74
787.37	11483.43
787.70	11305.13
788.02	11138.80
788.35	10886.27
788.68	10650.57
789.00	10491.48
789.33	10276.23
789.66	10132.05
789.99	9942.00
790.31	9703.36
790.64	9673.76
790.97	9397.27
791.29	9359.53
791.62	9091.51
791.95	8949.14
792.27	8767.68
792.60	8651.07
792.93	8468.70
793.25	8302.49
793.58	8221.59
793.91	8035.83
794.23	7823.75
794.56	7673.02
794.89	7558.22
795.21	7531.21
795.54	7272.46
795.87	7147.27
796.19	6988.29
796.52	6896.54
796.84	6754.17
797.17	6600.17
797.50	6505.14
797.82	6278.48
798.15	6215.09
798.47	6054.30
798.80	5963.80
799.12	5872.39
799.45	5716.69
799.78	5550.93
800.10	5450.03
800.43	5318.17
800.75	5185.40
801.08	5065.86
801.40	4931.51
801.73	4836.26
802.05	4684.40
802.38	4593.89
802.70	4463.39
803.03	4399.66
803.35	4293.45
803.68	4189.04
804.00	4058.54
804.33	3983.96
804.65	3865.66
804.98	3739.79
805.30	3619.57
805.63	3509.17
805.95	3415.05
806.28	3326.13
806.60	3189.52
806.93	3124.78
807.25	3050.09
807.58	2978.79
807.90	2897.89
808.22	2781.40
808.55	2724.45
808.87	2652.70
809.20	2553.27
809.52	2504.68
809.85	2425.59
810.17	2330.11
810.49	2275.99
810.82	2209.55
811.14	2142.20
811.47	2051.13
811.79	1993.85
812.11	1935.54
812.44	1884.58
812.76	1827.52
813.08	1748.32
813.41	1725.60
813.73	1648.21
814.05	1610.69
814.38	1543.01
814.70	1481.88
815.02	1443.58
815.35	1415.56
815.67	1362.45
815.99	1319.97
816.32	1281.55
816.64	1219.97
816.96	1221.89
817.29	1156.81
817.61	1129.12
817.93	1083.47
818.26	1047.54
818.58	1007.32
818.90	986.08
819.22	947.88
819.55	930.71
819.87	904.61
820.19	870.26
820.51	829.24
820.84	798.17
821.16	791.28
821.48	761.56
821.80	742.69
822.13	719.76
822.45	668.12
822.77	666.20
823.09	649.81
823.41	646.20
823.74	617.38
824.06	583.49
824.38	587.33
824.70	551.96
825.02	552.87
825.35	549.14
825.67	510.72
825.99	509.03
826.31	481.80
826.63	470.95
826.95	449.14
827.27	439.20
827.60	452.76
827.92	425.07
828.24	410.27
828.56	396.49
828.88	378.30
829.20	384.17
829.52	348.35
829.84	354.23
830.17	355.02
830.49	340.44
830.81	327.79
831.13	301.46
831.45	307.00
831.77	311.18
832.09	298.41
832.41	279.99
832.73	273.55
833.05	275.70
833.37	263.61
833.69	249.82
834.01	253.55
834.33	236.38
834.65	241.01
834.97	232.76
835.29	216.27
835.61	203.72
835.94	207.68
836.26	209.26
836.58	191.18
836.90	175.70
837.21	184.18
837.53	185.31
837.85	177.06
838.17	175.02
838.49	178.87
838.81	151.63
839.13	157.74
839.45	143.84
839.77	148.24
840.09	126.32
840.41	143.39
840.73	135.36
841.05	112.54
841.37	119.21
841.69	123.73
842.01	105.31
842.33	123.39
842.65	91.30
842.96	88.36
843.28	105.31
843.60	97.74
843.92	76.16
844.24	104.18
844.56	76.50
844.88	86.10
845.20	70.96
845.52	89.49
845.83	67.23
846.15	60.00
846.47	78.53
846.79	61.58
847.11	63.05
847.43	63.95
847.74	62.03
848.06	48.25
848.38	65.76
848.70	62.71
849.02	57.17
849.33	23.73
849.65	36.95
849.97	41.35
850.29	24.18
850.61	50.96
850.92	37.51
851.24	32.77
851.56	24.52
851.88	15.14
852.19	34.58
852.51	22.71
852.83	43.05
853.15	34.01
853.46	32.09
853.78	31.86
854.10	13.90
854.42	26.78
854.73	21.24
855.05	10.17
855.37	13.67
855.68	24.29
856.00	5.76
856.32	8.70
856.63	-12.43
856.95	0.23
857.27	10.73
857.59	5.99
857.90	-22.94
858.22	3.50
858.53	14.24
858.85	15.59
859.17	11.98
859.48	15.82
859.80	-8.47
860.12	2.03
860.43	0.56
860.75	-11.64
861.07	0.34
861.38	-19.89
861.70	-6.21
862.01	-20.90
862.33	-14.69
862.65	5.99
862.96	4.07
863.28	-14.01
863.59	-13.33
863.91	-27.68
864.22	-15.82
864.54	-16.72
864.86	0.68
865.17	-7.68
865.49	-9.27
865.80	-13.90
866.12	-15.82
866.43	-8.25
866.75	-16.04
867.06	-10.51
867.38	-15.37
867.69	-38.53
868.01	-27.46
868.32	-18.76
868.64	-13.11
868.95	-1.47
869.27	-16.04
869.58	-10.62
869.90	-4.97
870.21	-20.34
870.53	-13.33
870.84	-13.33
871.15	-10.73
871.47	-18.08
871.78	-4.07
872.10	-7.91
872.41	14.46
872.73	-12.66
873.04	-19.10
873.36	-30.73
873.67	-4.07
873.98	-18.87
874.30	-3.73
874.61	-28.36
874.93	-37.17
875.24	-5.88
875.55	-13.78
875.87	-3.50
876.18	-25.20
876.49	-15.25
876.81	-15.82
877.12	-26.33
877.43	-14.80
877.75	-22.49
878.06	3.05
878.37	-15.71
878.69	-3.73
879.00	-15.48
879.31	-24.86
879.63	-16.04
879.94	-0.79
880.25	-15.03
880.57	-28.59
880.88	-15.03
881.19	0.00
881.50	-20.23
881.82	-23.16
882.13	-10.06
882.44	-24.52
882.76	-33.11
883.07	-5.20
883.38	-21.69
883.69	-30.17
884.01	-18.76
884.32	-15.14
884.63	-25.42
884.94	-17.40
885.25	-29.83
885.57	-9.04
885.88	-15.37
886.19	-18.98
886.50	-16.61
886.81	-19.66
887.13	-12.20
887.44	-15.59
887.75	-8.25
888.06	-33.67
888.37	2.94
888.69	-41.35
889.00	-30.73
889.31	-16.04
889.62	-23.05
889.93	-23.84
890.24	-25.54
890.55	-26.21
890.87	-28.36
891.18	-10.28
891.49	-32.43
891.80	-17.74
892.11	-8.47
892.42	-7.34
892.73	-12.32
893.04	-27.00
893.35	2.03
893.66	-13.11
893.98	-39.32
894.29	-31.86
894.60	-49.60
894.91	-13.11
895.22	-26.21
895.53	-15.03
895.84	-14.91
896.15	-34.35
896.46	-6.55
896.77	-36.72
897.08	-29.60
897.39	-24.86
897.70	-18.98
898.01	-14.35
898.32	-22.94
898.63	-22.82
898.94	-15.71
899.25	-16.61
899.56	-3.84
899.87	-5.31
900.18	-12.77
900.49	-19.10
900.80	-30.96
901.11	-24.75
901.42	-28.93
901.73	-2.15
902.04	-16.95
902.35	-15.82
902.66	-43.05
902.96	-21.47
903.27	-22.82
903.58	-16.95
903.89	-9.72
904.20	-12.20
904.51	-27.12
904.82	-25.99
905.13	-49.60
905.44	-51.07
905.75	-38.19
906.05	-33.56
906.36	-20.56
906.67	-22.60
906.98	-10.62
907.29	-25.65
907.60	-21.58
907.91	-19.89
908.21	-17.06
908.52	-32.09
908.83	-23.95
909.14	-31.41
909.45	-38.19
909.75	-33.56
910.06	-18.19
910.37	-7.34
910.68	-21.13
910.99	-17.97
911.29	-9.49
911.60	-39.32
911.91	-40.22
912.22	-18.76
912.52	-22.49
912.83	-28.13
913.14	-20.34
913.45	-21.92
913.75	-28.70
914.06	-23.50
914.37	-22.03
914.68	-12.09
914.98	-25.88
915.29	-38.19
915.60	-22.82
915.91	-5.65
916.21	-19.77
916.52	-33.33
916.83	-23.84
917.13	-19.77
917.44	-10.73
917.75	-14.24
918.05	-14.01
918.36	-18.98
918.67	-41.24
918.97	-35.82
919.28	-14.24
919.59	-34.58
919.89	-34.35
920.20	-17.06
920.50	-27.23
920.81	-41.24
921.12	-27.23
921.42	-26.10
921.73	-15.82
922.03	-47.23
922.34	-30.51
922.65	-26.10
922.95	-17.63
923.26	-26.33
923.56	-33.45
923.87	-28.02
924.18	-28.81
924.48	-13.33
924.79	-23.28
925.09	-25.42
925.40	-16.50
925.70	-48.36
926.01	-24.41
926.31	-14.58
926.62	-55.37
926.92	-29.26
927.23	-47.68
927.53	-18.19
927.84	-20.23
928.14	-36.95
928.45	-15.71
928.75	-15.82
929.06	-7.91
929.36	-11.64
929.67	-24.41
929.97	-33.11
930.28	-17.06
930.58	-26.55
930.89	-16.95
931.19	-31.98
931.49	-32.09
931.80	-37.29
932.10	-11.75
932.41	-54.46
932.71	-27.57
933.01	-26.78
933.32	-27.46
933.62	-21.47
933.93	-13.33
934.23	-10.62
934.53	-13.11
934.84	-17.17
935.14	-14.12
935.45	-32.99
935.75	-30.62
936.05	-18.64
936.36	-11.41
936.66	-10.28
936.96	-35.93
937.27	-22.26
937.57	-30.73
937.87	-16.38
938.18	-23.05
938.48	-27.80
938.78	-2.60
939.08	-69.38
939.39	-29.15
939.69	-23.16
939.99	-26.44
940.30	-16.38
940.60	-12.88
940.90	-25.65
941.20	-45.87
941.51	-21.13
941.81	-20.68
942.11	-37.97
942.41	-23.62
942.72	-40.79
943.02	-14.80
943.32	-24.86
943.62	-25.20
943.93	-19.89
944.23	-6.67
944.53	-24.07
944.83	-22.15
945.13	-23.28
945.44	-25.08
945.74	-13.78
946.04	-41.35
946.34	-20.00
946.64	-30.51
946.94	-5.99
947.25	-20.23
947.55	-26.89
947.85	-32.20
948.15	-29.04
948.45	-21.24
948.75	-41.13
949.05	-39.66
949.35	-17.17
949.66	-32.09
949.96	-9.83
950.26	-35.14
950.56	-22.60
950.86	-28.59
951.16	-33.22
951.46	-24.63
951.76	-8.25
952.06	-18.64
952.36	-30.85
952.66	-18.53
952.96	-17.17
953.26	-20.11
953.57	-33.22
953.87	-21.81
954.17	-21.92
954.47	-24.07
954.77	-38.64
955.07	-11.75
955.37	-17.06
955.67	-25.99
955.97	-14.12
956.27	-17.06
956.57	-32.77
956.87	-42.48
957.17	-23.16
957.47	-18.19
957.77	-11.41
958.06	-21.69
958.36	-22.37
958.66	-13.56
958.96	-20.34
959.26	-30.28
959.56	-16.50
959.86	-32.54
960.16	-2.60
960.46	-22.71
960.76	-20.90
961.06	-22.26
961.36	-25.99
961.66	-13.45
961.95	-23.62
962.25	-17.74
962.55	-22.26
962.85	-9.72
963.15	-36.50
963.45	-18.19
963.75	-14.58
964.05	-10.40
964.34	-26.78
964.64	-38.08
964.94	-37.97
965.24	-35.48
965.54	-31.41
965.83	-16.04
966.13	-21.36
966.43	-24.18
966.73	-12.20
967.03	-28.93
967.32	-14.80
967.62	-3.50
967.92	-31.98
968.22	-20.56
968.52	-29.94
968.81	-36.38
969.11	-31.98
969.41	-15.14
969.71	-13.78
970.00	2.37
970.30	-15.71
970.60	-18.19
970.90	-16.72
971.19	-16.72
971.49	-28.47
971.79	-39.21
972.08	-9.83
972.38	-21.58
972.68	-22.71
972.97	-16.16
973.27	-28.13
973.57	-28.70
973.87	-17.40
974.16	-39.55
974.46	-20.79
974.75	-40.22
975.05	-14.69
975.35	-14.46
975.64	-45.42
975.94	-33.78
976.24	-14.58
976.53	-26.33
976.83	-24.86
977.13	-19.77
977.42	-15.93
977.72	9.27
978.01	-27.00
978.31	-21.02
978.60	-22.49
978.90	-34.69
979.20	-23.95
979.49	-31.86
979.79	-44.29
980.08	-26.89
980.38	-15.14
980.67	-12.43
980.97	-27.91
981.26	-17.40
981.56	-21.81
981.86	-23.28
982.15	-31.07
982.45	-18.87
982.74	-28.70
983.04	-15.03
983.33	-41.69
983.63	-26.44
983.92	-24.86
984.21	-33.11
984.51	-46.89
984.80	-12.43
985.10	-36.50
985.39	-34.91
985.69	-29.60
985.98	-44.07
986.28	-31.07
986.57	-24.07
986.87	-6.21
987.16	-10.17
987.45	-21.36
987.75	-33.11
988.04	-8.25
988.34	-27.00
988.63	-21.47
988.92	-31.98
989.22	-37.85
989.51	-22.49
989.80	-24.52
990.10	-18.19
990.39	-32.09
990.69	-29.49
990.98	-36.95
991.27	-22.60
991.57	-15.48
991.86	-6.55
992.15	-6.55
992.45	-30.62
992.74	-25.88
993.03	-30.06
993.33	-17.17
993.62	-32.99
993.91	-24.52
994.20	-29.49
994.50	-34.01
994.79	-22.03
995.08	-25.08
995.37	-19.32
995.67	-32.32
995.96	-23.62
996.25	-18.30
996.54	-14.35
996.84	-7.57
997.13	-25.76
997.42	-34.91
997.71	-18.87
998.01	-13.90
998.30	-37.40
998.59	-11.19
998.88	-36.95
999.17	-16.61
999.47	-12.09
999.76	-11.41
1000.05	-26.55
1000.34	-25.88
1000.63	-29.60
1000.92	-7.91
1001.22	-18.19
1001.51	-12.54
1001.80	-31.19
1002.09	-24.29
1002.38	-26.55
1002.67	-29.83
1002.96	-30.17
1003.26	-16.04
1003.55	-33.22
1003.84	-25.65
1004.13	-18.08
1004.42	-25.42
1004.71	-39.10
1005.00	-15.03
1005.29	-31.98
1005.58	-32.09
1005.87	-25.99
1006.16	-39.55
1006.45	-7.12
1006.74	-17.85
1007.04	-18.19
1007.33	-6.67
1007.62	-33.45
1007.91	-15.48
1008.20	-8.36
1008.49	-42.26
1008.78	-30.62
1009.07	-27.68
1009.36	-34.24
1009.65	-32.77
1009.94	-35.59
1010.23	-12.20
1010.52	-28.13
1010.81	-24.75
1011.10	-16.95
1011.38	-31.19
1011.67	-26.21
1011.96	-18.53
1012.25	-12.54
1012.54	-23.95
1012.83	-34.12
1013.12	-33.78
1013.41	-37.40
1013.70	-27.00
1013.99	-29.26
1014.28	-2.94
1014.57	-23.39
1014.86	-22.26
1015.14	-29.83
1015.43	-15.59
1015.72	-26.33
1016.01	-9.27
1016.30	-24.97
1016.59	-22.03
1016.88	-16.95
1017.16	-27.00
1017.45	-30.85
1017.74	-32.54
1018.03	-28.93
1018.32	-16.84
1018.61	-36.84
1018.89	-19.21
1019.18	-18.42
1019.47	-27.12
1019.76	-40.34
1020.05	-35.48
1020.33	-13.33
1020.62	-30.85
1020.91	4.07
1021.20	-23.28
1021.48	-33.78
1021.77	-30.73
1022.06	-31.86
1022.35	-19.21
1022.63	-22.71
1022.92	-33.67
1023.21	-0.45
1023.50	-35.93
1023.78	-27.80
1024.07	-7.57
1024.36	-26.44
1024.64	-20.34
1024.93	-17.06
1025.22	-37.63
1025.50	-15.03
1025.79	-14.80
1026.08	-36.84
1026.36	-17.97
1026.65	-30.39
1026.94	-14.58
1027.22	-27.91
1027.51	-15.59
1027.80	-23.05
1028.08	-12.43
1028.37	-35.93
1028.66	-13.11
1028.94	-31.75
>>>>>End Processed Spectral Data<<<<<
