SpectraSuite Data File
++++++++++++++++++++++++++++++++++++
Date: Thu Jun 15 11:43:08 BST 2017
User: Eng0000912
Dark Spectrum Present: Yes
Reference Spectrum Present: No
Number of Sampled Component Spectra: 1
Spectrometers: USB2+H04851
Integration Time (usec): 100000 (USB2+H04851)
Spectra Averaged: 20 (USB2+H04851)
Boxcar Smoothing: 0 (USB2+H04851)
Correct for Electrical Dark: No (USB2+H04851)
Strobe/Lamp Enabled: No (USB2+H04851)
Correct for Detector Non-linearity: No (USB2+H04851)
Correct for Stray Light: No (USB2+H04851)
Number of Pixels in Processed Spectrum: 2048
>>>>>Begin Processed Spectral Data<<<<<
340.07	-20.11
340.45	-20.11
340.82	-20.11
341.20	-16.72
341.58	-28.36
341.96	-15.71
342.34	-44.74
342.72	-31.75
343.10	-39.77
343.48	-28.70
343.85	-35.48
344.23	-21.47
344.61	-17.97
344.99	-31.07
345.37	-17.74
345.75	-20.79
346.13	-36.50
346.50	-20.68
346.88	-13.90
347.26	-21.81
347.64	-35.25
348.02	-27.91
348.40	-29.04
348.77	-21.92
349.15	-30.51
349.53	-27.80
349.91	-29.94
350.29	-7.12
350.66	-18.30
351.04	-29.60
351.42	-20.00
351.80	-24.75
352.18	-30.51
352.55	-6.89
352.93	-11.75
353.31	-12.66
353.69	-16.50
354.07	-16.61
354.44	-8.36
354.82	-35.71
355.20	-18.64
355.58	-20.45
355.95	-28.81
356.33	-30.85
356.71	-9.38
357.09	-48.59
357.46	-46.44
357.84	-21.81
358.22	-11.53
358.60	-34.35
358.97	-25.76
359.35	-11.30
359.73	0.56
360.10	-22.15
360.48	-20.34
360.86	-34.35
361.24	-40.34
361.61	-13.33
361.99	-46.10
362.37	-24.75
362.74	-37.17
363.12	-24.97
363.50	-37.85
363.87	-10.51
364.25	-19.89
364.63	-36.27
365.01	-37.51
365.38	-42.48
365.76	-32.65
366.14	-27.00
366.51	-33.56
366.89	-10.73
367.27	-36.61
367.64	4.63
368.02	-36.16
368.39	-30.28
368.77	-31.30
369.15	-27.46
369.52	-1.58
369.90	-20.23
370.28	-28.02
370.65	-16.27
371.03	-17.85
371.40	-27.80
371.78	-28.25
372.16	-31.19
372.53	-15.93
372.91	-14.91
373.28	-9.38
373.66	-23.28
374.04	-24.18
374.41	-22.71
374.79	-29.04
375.16	-23.28
375.54	-28.81
375.92	-29.04
376.29	-36.72
376.67	-26.78
377.04	-33.11
377.42	-32.99
377.79	-26.33
378.17	-33.11
378.55	-8.47
378.92	-21.24
379.30	-23.05
379.67	-45.65
380.05	-11.07
380.42	-17.97
380.80	-30.73
381.17	-22.15
381.55	-16.50
381.92	-20.79
382.30	-39.10
382.67	-24.18
383.05	-21.24
383.42	-34.69
383.80	-46.67
384.17	1.02
384.55	-26.89
384.92	-29.26
385.30	-25.08
385.67	-30.73
386.05	-10.06
386.42	-15.93
386.80	-20.23
387.17	-28.02
387.55	-30.62
387.92	-24.29
388.30	-18.53
388.67	-18.64
389.04	-40.22
389.42	-39.32
389.79	-20.79
390.17	-29.26
390.54	-26.55
390.92	-21.24
391.29	-29.94
391.67	-24.29
392.04	-25.65
392.41	-13.33
392.79	-25.76
393.16	-31.75
393.54	-36.50
393.91	-33.11
394.28	-9.83
394.66	-32.88
395.03	-31.41
395.41	-33.22
395.78	1.47
396.15	-21.36
396.53	-37.40
396.90	-38.42
397.28	-32.54
397.65	-13.22
398.02	-17.06
398.40	-8.93
398.77	-17.85
399.14	-20.90
399.52	-34.58
399.89	-33.78
400.26	-33.90
400.64	-18.64
401.01	-19.66
401.38	-5.42
401.76	-22.82
402.13	-6.33
402.50	-20.34
402.88	-11.86
403.25	-35.82
403.62	-36.38
404.00	-8.59
404.37	-23.05
404.74	-31.41
405.12	-54.01
405.49	-16.84
405.86	-9.27
406.23	-20.79
406.61	-7.46
406.98	-18.64
407.35	-32.65
407.73	-27.34
408.10	0.56
408.47	-12.77
408.84	-12.54
409.22	-32.65
409.59	-25.54
409.96	-32.20
410.33	-13.90
410.71	-20.90
411.08	-23.84
411.45	-17.29
411.82	-12.54
412.20	-15.37
412.57	-9.72
412.94	-32.32
413.31	-30.17
413.68	-25.76
414.06	-26.55
414.43	-21.13
414.80	-33.90
415.17	-18.64
415.55	-20.56
415.92	-25.20
416.29	-13.11
416.66	-30.85
417.03	-18.87
417.40	-12.77
417.78	-10.28
418.15	-14.01
418.52	-6.67
418.89	-35.48
419.26	-33.56
419.63	-29.49
420.01	-30.17
420.38	-33.33
420.75	-22.94
421.12	-26.67
421.49	-27.57
421.86	-7.68
422.23	-18.64
422.61	-25.20
422.98	-32.99
423.35	-34.24
423.72	-24.52
424.09	-40.11
424.46	-9.27
424.83	-26.10
425.20	-13.90
425.58	-23.62
425.95	-18.30
426.32	-32.20
426.69	-23.05
427.06	-13.90
427.43	-16.38
427.80	-15.37
428.17	-26.33
428.54	-11.64
428.91	-17.06
429.28	-9.27
429.65	-40.34
430.02	-5.42
430.40	-28.36
430.77	-22.26
431.14	-31.64
431.51	-22.71
431.88	-28.70
432.25	-13.45
432.62	-28.59
432.99	-16.61
433.36	-17.40
433.73	-27.34
434.10	-25.20
434.47	-16.72
434.84	-17.29
435.21	-17.40
435.58	-7.34
435.95	-28.02
436.32	-17.97
436.69	-51.19
437.06	-6.55
437.43	-31.07
437.80	-23.62
438.17	-22.49
438.54	-26.78
438.91	-8.70
439.28	-9.04
439.65	-43.05
440.02	-23.50
440.39	-29.60
440.76	-16.95
441.13	-21.69
441.49	-21.13
441.86	-23.73
442.23	-18.53
442.60	-29.72
442.97	-24.29
443.34	-25.42
443.71	-28.81
444.08	-48.59
444.45	-10.62
444.82	-37.40
445.19	-5.99
445.56	-42.71
445.93	-27.12
446.29	-32.09
446.66	-30.62
447.03	-38.19
447.40	-19.55
447.77	-27.57
448.14	-32.43
448.51	-36.38
448.88	-8.14
449.24	-17.74
449.61	-39.10
449.98	-8.93
450.35	-20.23
450.72	-16.95
451.09	-5.99
451.46	-26.44
451.82	-6.55
452.19	-23.05
452.56	-26.89
452.93	-8.81
453.30	-31.52
453.67	-31.98
454.03	-42.26
454.40	-30.39
454.77	-13.56
455.14	-31.64
455.51	-31.52
455.87	-23.05
456.24	-14.91
456.61	-21.02
456.98	-20.90
457.35	-21.47
457.71	-28.36
458.08	-38.19
458.45	-4.41
458.82	-7.12
459.19	-28.13
459.55	-18.19
459.92	-21.24
460.29	-17.51
460.66	-24.63
461.02	-19.21
461.39	-19.10
461.76	-24.07
462.13	-34.35
462.49	-13.45
462.86	-14.24
463.23	-26.33
463.59	-18.76
463.96	-32.65
464.33	-15.03
464.70	-12.88
465.06	-35.59
465.43	-20.00
465.80	-23.05
466.16	-26.89
466.53	-30.39
466.90	-15.03
467.26	-20.34
467.63	-15.37
468.00	-35.03
468.36	-34.80
468.73	-15.82
469.10	-30.17
469.46	-6.44
469.83	-14.35
470.20	-24.52
470.56	-21.13
470.93	-24.75
471.30	-29.83
471.66	-29.83
472.03	-16.50
472.40	-22.71
472.76	-10.73
473.13	-28.93
473.50	-37.17
473.86	-6.10
474.23	-26.10
474.59	-30.73
474.96	-47.34
475.33	-12.66
475.69	-28.93
476.06	-35.25
476.42	-29.04
476.79	-12.54
477.16	-9.15
477.52	-30.17
477.89	-27.46
478.25	-9.27
478.62	-27.57
478.98	-17.97
479.35	-14.24
479.72	-25.31
480.08	-27.57
480.45	-26.78
480.81	-27.34
481.18	-37.06
481.54	-33.90
481.91	-22.60
482.27	-6.89
482.64	-34.91
483.00	-29.15
483.37	-31.64
483.73	-28.36
484.10	-35.82
484.46	-26.55
484.83	-9.38
485.19	-24.75
485.56	-19.10
485.92	-19.43
486.29	-32.88
486.65	-26.67
487.02	-46.44
487.38	-4.63
487.75	-22.49
488.11	-16.72
488.48	-28.93
488.84	-38.64
489.21	-20.79
489.57	-48.02
489.94	-32.32
490.30	-14.46
490.66	-22.94
491.03	-18.76
491.39	-21.13
491.76	-20.56
492.12	-10.40
492.49	-22.94
492.85	-30.39
493.21	-12.54
493.58	-18.30
493.94	10.51
494.31	-23.73
494.67	-30.85
495.03	-20.56
495.40	-33.11
495.76	-45.20
496.13	-13.11
496.49	-21.58
496.85	-13.11
497.22	-13.45
497.58	-30.96
497.94	-16.72
498.31	-6.33
498.67	-33.67
499.04	-24.41
499.40	-26.21
499.76	-17.29
500.13	-20.68
500.49	-11.86
500.85	-39.10
501.22	-15.48
501.58	-32.09
501.94	-11.41
502.31	-15.48
502.67	-11.07
503.03	-31.75
503.40	-34.69
503.76	-32.88
504.12	-5.65
504.48	-16.95
504.85	-19.32
505.21	-34.46
505.57	-40.90
505.94	-32.88
506.30	-11.98
506.66	-18.08
507.02	-22.03
507.39	-12.77
507.75	-37.51
508.11	-23.95
508.47	-17.85
508.84	-20.68
509.20	-10.73
509.56	-14.35
509.92	-27.57
510.29	-25.88
510.65	-35.37
511.01	-28.47
511.37	-33.22
511.74	-13.67
512.10	-14.91
512.46	-7.23
512.82	-15.14
513.18	-16.27
513.55	-17.51
513.91	-17.40
514.27	-22.60
514.63	-27.00
514.99	-24.07
515.35	-19.66
515.72	-31.19
516.08	-33.45
516.44	-20.56
516.80	-23.05
517.16	-22.49
517.52	-28.13
517.89	-14.46
518.25	-36.16
518.61	-34.69
518.97	-27.57
519.33	-16.27
519.69	0.79
520.05	-19.43
520.42	-28.47
520.78	-34.01
521.14	-28.02
521.50	-26.33
521.86	-30.51
522.22	-11.64
522.58	-15.82
522.94	-35.25
523.30	-5.99
523.67	-7.23
524.03	-32.32
524.39	-44.86
524.75	-31.19
525.11	-27.23
525.47	-35.03
525.83	-13.78
526.19	-16.72
526.55	6.78
526.91	-14.24
527.27	-14.58
527.63	-14.35
527.99	-16.50
528.35	-8.70
528.71	-5.20
529.07	-18.19
529.43	-4.86
529.79	-15.82
530.15	-11.53
530.51	-22.03
530.87	-24.97
531.23	-5.08
531.59	-2.37
531.95	-30.96
532.31	-41.92
532.67	-58.19
533.03	-37.06
533.39	-14.69
533.75	-20.90
534.11	-34.80
534.47	-14.91
534.83	-25.88
535.19	-16.16
535.55	-29.04
535.91	-16.27
536.27	-32.09
536.63	-37.29
536.99	-23.16
537.35	-22.71
537.71	-13.67
538.07	-34.80
538.43	-16.72
538.79	-44.97
539.15	-18.19
539.51	-30.85
539.86	-2.49
540.22	-24.29
540.58	-33.45
540.94	-23.95
541.30	-15.82
541.66	-20.90
542.02	-24.63
542.38	-42.26
542.74	-24.18
543.09	-27.91
543.45	-15.25
543.81	-16.72
544.17	-5.54
544.53	-35.37
544.89	-25.20
545.25	-21.47
545.60	-21.02
545.96	-40.90
546.32	-12.88
546.68	-17.06
547.04	-26.67
547.40	-28.02
547.75	-25.08
548.11	-31.86
548.47	-15.25
548.83	-21.24
549.19	-19.10
549.55	-8.14
549.90	-3.50
550.26	-18.42
550.62	-21.69
550.98	-34.69
551.34	-35.14
551.69	-21.81
552.05	-26.67
552.41	-41.58
552.77	-35.25
553.12	-31.52
553.48	-9.49
553.84	-4.86
554.20	-15.71
554.55	-25.76
554.91	-15.37
555.27	-44.29
555.63	-0.11
555.98	-11.41
556.34	-29.49
556.70	-20.11
557.05	-16.72
557.41	-26.44
557.77	-33.22
558.13	-24.18
558.48	-35.37
558.84	-17.06
559.20	-14.80
559.55	-34.24
559.91	-27.80
560.27	-18.08
560.62	-12.99
560.98	-20.00
561.34	-6.55
561.69	-8.59
562.05	-28.25
562.41	-26.33
562.76	-30.28
563.12	-10.40
563.48	4.52
563.83	-13.22
564.19	-33.78
564.55	-22.82
564.90	-17.97
565.26	-23.84
565.62	-22.94
565.97	-24.52
566.33	-20.23
566.68	-27.91
567.04	-19.10
567.40	-16.72
567.75	-40.90
568.11	-33.78
568.46	-6.21
568.82	-19.55
569.18	-19.32
569.53	-8.70
569.89	-17.97
570.24	-13.33
570.60	-3.84
570.95	-8.02
571.31	1.02
571.66	9.15
572.02	13.33
572.38	37.40
572.73	29.94
573.09	16.72
573.44	57.51
573.80	32.20
574.15	19.66
574.51	19.77
574.86	28.47
575.22	34.35
575.57	25.08
575.93	33.45
576.28	33.78
576.64	25.88
576.99	40.56
577.35	42.48
577.70	26.44
578.06	25.20
578.41	29.94
578.77	14.69
579.12	7.91
579.48	-1.02
579.83	10.73
580.18	13.45
580.54	2.71
580.89	5.99
581.25	-3.62
581.60	6.10
581.96	-15.48
582.31	-20.00
582.67	-12.99
583.02	-9.49
583.37	-18.19
583.73	-19.77
584.08	-23.50
584.44	-10.51
584.79	-16.27
585.14	-10.17
585.50	-27.12
585.85	-28.36
586.21	-29.26
586.56	-18.87
586.91	-7.23
587.27	-31.30
587.62	-28.13
587.97	-41.24
588.33	-17.74
588.68	-0.34
589.03	-16.04
589.39	-14.24
589.74	-5.31
590.09	-23.95
590.45	-13.33
590.80	-27.00
591.15	-18.98
591.51	-27.80
591.86	-3.39
592.21	-9.38
592.57	-23.50
592.92	-17.06
593.27	-10.40
593.63	-34.58
593.98	-23.28
594.33	-46.89
594.69	-17.06
595.04	-9.72
595.39	-8.59
595.74	-18.64
596.10	-7.57
596.45	-29.26
596.80	-19.32
597.15	-24.97
597.51	4.41
597.86	-12.54
598.21	-19.10
598.56	0.56
598.92	-33.45
599.27	-14.01
599.62	-6.33
599.97	-18.30
600.32	8.70
600.68	-0.68
601.03	0.11
601.38	-29.83
601.73	0.23
602.09	-22.15
602.44	-22.60
602.79	-35.59
603.14	-6.21
603.49	-12.99
603.84	-17.40
604.20	-20.00
604.55	-17.40
604.90	-8.25
605.25	-14.69
605.60	-27.80
605.95	-18.98
606.31	-17.17
606.66	-7.57
607.01	-0.79
607.36	-25.08
607.71	-21.13
608.06	-7.80
608.41	-30.17
608.76	-6.67
609.12	-24.63
609.47	-19.10
609.82	-17.74
610.17	-9.60
610.52	-12.77
610.87	1.47
611.22	-14.01
611.57	-15.03
611.92	-15.82
612.27	-14.01
612.62	-14.80
612.98	-26.44
613.33	-28.02
613.68	-11.98
614.03	-16.04
614.38	-20.23
614.73	-18.87
615.08	-20.79
615.43	-28.02
615.78	-17.40
616.13	-22.82
616.48	-25.31
616.83	-8.93
617.18	-29.83
617.53	-7.68
617.88	-37.51
618.23	-18.08
618.58	-8.25
618.93	-14.46
619.28	-9.60
619.63	-21.81
619.98	-30.85
620.33	-25.88
620.68	-32.09
621.03	-18.64
621.38	-9.38
621.73	-23.39
622.08	-14.58
622.43	-11.75
622.78	-20.90
623.13	-29.72
623.48	-17.74
623.82	-31.75
624.17	-25.08
624.52	-35.71
624.87	-18.98
625.22	-40.79
625.57	-15.14
625.92	-21.36
626.27	-35.71
626.62	-8.36
626.97	-28.47
627.32	-7.34
627.66	-28.02
628.01	-10.85
628.36	-35.93
628.71	-38.19
629.06	-22.82
629.41	-13.78
629.76	-33.45
630.11	-29.26
630.45	-30.28
630.80	-17.06
631.15	-10.17
631.50	-18.42
631.85	-25.99
632.20	-23.16
632.54	-28.93
632.89	-15.71
633.24	-19.77
633.59	-23.95
633.94	-11.07
634.29	-17.74
634.63	-7.91
634.98	-11.07
635.33	-41.92
635.68	-4.63
636.02	-27.57
636.37	-29.72
636.72	-0.90
637.07	-18.64
637.42	-7.23
637.76	-23.84
638.11	-22.60
638.46	-31.86
638.81	-3.28
639.15	-17.97
639.50	-18.30
639.85	-11.75
640.20	-13.56
640.54	-28.81
640.89	-9.49
641.24	5.76
641.58	-9.49
641.93	-11.75
642.28	-8.81
642.63	-18.42
642.97	-10.28
643.32	-4.41
643.67	-11.64
644.01	-33.78
644.36	-19.32
644.71	-21.47
645.05	-3.16
645.40	-7.46
645.75	-21.13
646.09	-27.91
646.44	-22.03
646.79	-33.22
647.13	-26.33
647.48	-0.00
647.83	-5.99
648.17	-7.46
648.52	-4.29
648.86	-23.50
649.21	-27.91
649.56	-7.23
649.90	-14.12
650.25	-3.84
650.60	0.45
650.94	-13.33
651.29	-16.95
651.63	10.40
651.98	-1.47
652.33	-21.13
652.67	-22.71
653.02	-18.08
653.36	-15.82
653.71	-1.24
654.05	-29.26
654.40	-14.91
654.74	-10.96
655.09	-6.21
655.44	-14.58
655.78	-18.53
656.13	-9.38
656.47	-5.99
656.82	-8.70
657.16	-7.68
657.51	-8.59
657.85	-15.93
658.20	-8.25
658.54	-0.11
658.89	-8.47
659.23	8.47
659.58	12.54
659.92	-12.99
660.27	-21.24
660.61	-17.17
660.96	-4.18
661.30	-0.56
661.65	-11.98
661.99	-13.45
662.33	1.69
662.68	6.44
663.02	-15.48
663.37	11.64
663.71	12.66
664.06	-1.24
664.40	18.76
664.75	-1.92
665.09	-10.17
665.43	13.33
665.78	6.78
666.12	19.55
666.47	12.32
666.81	-4.41
667.15	9.27
667.50	7.57
667.84	20.00
668.19	9.15
668.53	25.42
668.87	7.91
669.22	15.82
669.56	24.52
669.90	26.55
670.25	30.73
670.59	29.72
670.93	24.75
671.28	37.29
671.62	37.06
671.96	26.44
672.31	43.61
672.65	32.09
672.99	32.88
673.34	37.63
673.68	27.91
674.02	38.19
674.37	47.34
674.71	40.22
675.05	29.60
675.40	36.50
675.74	54.35
676.08	53.67
676.42	80.68
676.77	49.72
677.11	71.75
677.45	68.36
677.79	52.99
678.14	59.77
678.48	78.87
678.82	78.53
679.16	57.29
679.51	85.99
679.85	65.65
680.19	74.35
680.53	82.60
680.88	92.31
681.22	90.96
681.56	101.35
681.90	85.87
682.24	90.17
682.59	93.56
682.93	109.49
683.27	110.84
683.61	107.34
683.95	95.03
684.29	98.98
684.64	107.79
684.98	121.47
685.32	113.56
685.66	138.98
686.00	151.07
686.34	112.54
686.69	134.12
687.03	138.30
687.37	149.49
687.71	175.93
688.05	163.61
688.39	159.20
688.73	175.81
689.07	176.72
689.41	174.12
689.76	185.19
690.10	180.56
690.44	181.01
690.78	188.36
691.12	191.29
691.46	189.15
691.80	225.87
692.14	213.67
692.48	239.09
692.82	215.25
693.16	237.06
693.50	250.84
693.84	255.47
694.18	271.07
694.53	267.90
694.87	287.45
695.21	283.50
695.55	291.29
695.89	285.53
696.23	314.00
696.57	310.16
696.91	334.23
697.25	318.64
697.59	370.05
697.93	352.08
698.27	374.45
698.61	359.20
698.95	381.12
699.29	392.31
699.63	399.20
699.97	400.89
700.30	403.15
700.64	441.80
700.98	447.67
701.32	448.46
701.66	477.28
702.00	476.94
702.34	483.49
702.68	487.33
703.02	534.22
703.36	546.54
703.70	554.67
704.04	582.36
704.38	602.24
704.72	599.76
705.05	622.92
705.39	632.07
705.73	652.75
706.07	671.17
706.41	666.42
706.75	692.41
707.09	723.37
707.43	734.78
707.77	754.67
708.10	765.74
708.44	790.71
708.78	802.69
709.12	837.15
709.46	838.06
709.80	835.57
710.13	900.88
710.47	927.09
710.81	921.11
711.15	948.68
711.49	983.48
711.82	1000.65
712.16	1037.71
712.50	1042.23
712.84	1067.88
713.18	1075.11
713.51	1108.78
713.85	1139.18
714.19	1151.61
714.53	1188.90
714.87	1248.33
715.20	1259.85
715.54	1259.29
715.88	1313.52
716.22	1346.41
716.55	1376.24
716.89	1400.87
717.23	1420.53
717.57	1431.71
717.90	1501.99
718.24	1539.28
718.58	1544.93
718.91	1614.53
719.25	1653.85
719.59	1664.93
719.93	1718.82
720.26	1764.13
720.60	1811.82
720.94	1867.86
721.27	1900.63
721.61	1947.63
721.95	1985.03
722.28	2032.71
722.62	2084.69
722.96	2139.83
723.29	2191.47
723.63	2235.08
723.97	2291.24
724.30	2318.81
724.64	2394.06
724.97	2500.61
725.31	2527.50
725.65	2584.11
725.98	2669.53
726.32	2709.76
726.66	2779.25
726.99	2874.05
727.33	2929.19
727.66	2994.16
728.00	3082.18
728.33	3171.67
728.67	3211.44
729.01	3303.30
729.34	3362.96
729.68	3439.01
730.01	3499.79
730.35	3630.19
730.68	3735.72
731.02	3782.95
731.36	3886.68
731.69	3985.77
732.03	4116.61
732.36	4180.00
732.70	4286.44
733.03	4384.18
733.37	4464.97
733.70	4598.30
734.04	4675.47
734.37	4779.65
734.71	4911.74
735.04	5040.09
735.38	5114.89
735.71	5263.25
736.05	5377.49
736.38	5483.47
736.72	5587.08
737.05	5703.69
737.38	5818.83
737.72	5889.34
738.05	6098.82
738.39	6171.48
738.72	6355.99
739.06	6426.38
739.39	6590.90
739.73	6666.15
740.06	6837.45
740.39	6979.03
740.73	7163.31
741.06	7221.05
741.40	7375.51
741.73	7528.73
742.06	7669.40
742.40	7845.44
742.73	7959.79
743.07	8103.74
743.40	8266.45
743.73	8402.38
744.07	8562.37
744.40	8711.64
744.73	8892.08
745.07	9044.51
745.40	9213.88
745.73	9309.13
746.07	9509.58
746.40	9657.94
746.73	9777.03
747.07	9917.71
747.40	10145.27
747.73	10339.28
748.07	10460.63
748.40	10656.56
748.73	10798.25
749.07	11069.99
749.40	11194.06
749.73	11392.92
750.06	11462.86
750.40	11670.77
750.73	11880.93
751.06	12082.28
751.40	12236.51
751.73	12445.21
752.06	12622.83
752.39	12769.27
752.73	13005.53
753.06	13180.22
753.39	13405.98
753.72	13500.21
754.05	13684.16
754.39	13875.34
754.72	14060.42
755.05	14442.22
755.38	14423.58
755.72	14609.79
756.05	14766.96
756.38	15054.97
756.71	15183.22
757.04	15389.31
757.37	15489.76
757.71	15734.95
758.04	15829.19
758.37	16059.80
758.70	16140.71
759.03	16386.57
759.36	16572.78
759.70	16752.55
760.03	16921.59
760.36	17194.35
760.69	17374.68
761.02	17468.13
761.35	17526.43
761.68	17892.30
762.01	17946.08
762.35	18104.72
762.68	18244.38
763.01	18442.23
763.34	18628.89
763.67	18715.89
764.00	18792.27
764.33	18894.76
764.66	18896.90
764.99	19054.87
765.32	19187.41
765.65	19394.63
765.98	19546.49
766.31	19452.93
766.65	19464.23
766.98	19545.59
767.31	19587.06
767.64	19764.57
767.97	19686.26
768.30	19629.99
768.63	19817.33
768.96	19517.00
769.29	19613.61
769.62	19596.66
769.95	19648.18
770.28	19713.27
770.61	19548.98
770.94	19635.30
771.27	19669.88
771.60	19605.02
771.93	19531.46
772.26	19439.38
772.59	19337.34
772.92	19444.46
773.24	19358.59
773.57	19368.53
773.90	19192.15
774.23	19103.11
774.56	19016.11
774.89	19001.65
775.22	18730.35
775.55	18765.50
775.88	18538.61
776.21	18417.37
776.54	18191.39
776.87	18019.41
777.19	17917.49
777.52	17885.07
777.85	17509.37
778.18	17411.29
778.51	17256.72
778.84	17188.81
779.17	17058.42
779.50	16885.32
779.82	16672.10
780.15	16433.24
780.48	16267.71
780.81	16029.07
781.14	15979.47
781.47	15832.92
781.80	15476.54
782.12	15464.68
782.45	15192.37
782.78	15124.57
783.11	14892.04
783.44	14634.19
783.76	14589.22
784.09	14214.09
784.42	14118.05
784.75	13959.63
785.08	13787.66
785.40	13526.76
785.73	13370.38
786.06	13031.18
786.39	13022.48
786.71	12820.23
787.04	12675.94
787.37	12399.79
787.70	12145.56
788.02	11998.22
788.35	11730.88
788.68	11494.50
789.00	11394.05
789.33	11105.24
789.66	10953.50
789.99	10705.93
790.31	10527.86
790.64	10370.46
790.97	10156.46
791.29	10042.11
791.62	9854.09
791.95	9645.17
792.27	9460.88
792.60	9277.84
792.93	9171.28
793.25	8941.35
793.58	8888.01
793.91	8654.91
794.23	8411.08
794.56	8304.30
794.89	8105.89
795.21	8056.74
795.54	7850.98
795.87	7731.32
796.19	7546.24
796.52	7380.82
796.84	7252.24
797.17	7090.66
797.50	6963.32
797.82	6795.64
798.15	6665.59
798.47	6493.16
798.80	6370.57
799.12	6312.83
799.45	6137.92
799.78	5971.03
800.10	5859.85
800.43	5708.78
800.75	5567.88
801.08	5455.45
801.40	5298.96
801.73	5171.84
802.05	5035.23
802.38	4909.93
802.70	4825.64
803.03	4677.73
803.35	4595.81
803.68	4493.22
804.00	4355.14
804.33	4272.09
804.65	4156.73
804.98	4034.36
805.30	3884.42
805.63	3783.97
805.95	3690.19
806.28	3575.50
806.60	3409.74
806.93	3403.53
807.25	3293.81
807.58	3193.93
807.90	3076.64
808.22	2990.66
808.55	2910.54
808.87	2861.85
809.20	2759.36
809.52	2707.73
809.85	2607.16
810.17	2501.18
810.49	2406.38
810.82	2357.11
811.14	2297.11
811.47	2219.94
811.79	2157.80
812.11	2054.07
812.44	1999.83
812.76	1950.34
813.08	1848.99
813.41	1830.23
813.73	1778.82
814.05	1718.37
814.38	1660.30
814.70	1599.28
815.02	1562.78
815.35	1513.86
815.67	1458.15
815.99	1414.99
816.32	1362.68
816.64	1316.35
816.96	1281.66
817.29	1247.65
817.61	1215.34
817.93	1188.90
818.26	1143.02
818.58	1085.73
818.90	1058.73
819.22	1045.40
819.55	988.90
819.87	957.38
820.19	929.69
820.51	912.52
820.84	862.46
821.16	845.74
821.48	800.66
821.80	807.89
822.13	759.42
822.45	757.83
822.77	712.86
823.09	692.41
823.41	684.95
823.74	657.95
824.06	619.42
824.38	624.73
824.70	591.40
825.02	569.36
825.35	585.18
825.67	543.83
825.99	523.83
826.31	515.35
826.63	503.72
826.95	480.21
827.27	472.64
827.60	469.93
827.92	452.42
828.24	428.35
828.56	425.07
828.88	411.06
829.20	407.22
829.52	394.79
829.84	390.84
830.17	371.63
830.49	357.73
830.81	370.27
831.13	346.66
831.45	324.85
831.77	319.65
832.09	310.16
832.41	296.15
832.73	317.05
833.05	297.51
833.37	300.44
833.69	262.59
834.01	261.46
834.33	237.39
834.65	238.19
834.97	254.12
835.29	229.37
835.61	221.92
835.94	232.54
836.26	208.47
836.58	201.12
836.90	206.10
837.21	196.38
837.53	209.15
837.85	172.65
838.17	197.62
838.49	165.08
838.81	166.55
839.13	174.80
839.45	173.10
839.77	149.71
840.09	137.85
840.41	134.01
840.73	134.23
841.05	131.07
841.37	127.68
841.69	127.79
842.01	108.02
842.33	106.55
842.65	96.72
842.96	111.52
843.28	111.41
843.60	88.02
843.92	94.12
844.24	96.95
844.56	91.30
844.88	89.15
845.20	70.73
845.52	83.16
845.83	77.40
846.15	64.07
846.47	84.18
846.79	60.22
847.11	61.02
847.43	68.02
847.74	68.70
848.06	37.06
848.38	76.38
848.70	57.96
849.02	68.47
849.33	39.32
849.65	52.32
849.97	62.60
850.29	43.50
850.61	41.69
850.92	41.69
851.24	28.81
851.56	39.89
851.88	35.71
852.19	34.80
852.51	21.24
852.83	33.11
853.15	22.94
853.46	21.81
853.78	19.32
854.10	16.38
854.42	33.22
854.73	16.16
855.05	1.47
855.37	-2.60
855.68	20.79
856.00	3.84
856.32	-4.52
856.63	-1.69
856.95	3.39
857.27	10.51
857.59	-9.15
857.90	1.02
858.22	-4.41
858.53	-4.07
858.85	-0.34
859.17	-2.82
859.48	4.41
859.80	-4.86
860.12	-14.12
860.43	1.81
860.75	-4.18
861.07	2.82
861.38	-9.27
861.70	-10.51
862.01	-15.71
862.33	-22.15
862.65	-8.70
862.96	-0.11
863.28	-18.53
863.59	-3.16
863.91	-8.25
864.22	-1.47
864.54	-3.39
864.86	-12.32
865.17	-19.55
865.49	-6.78
865.80	-8.47
866.12	-24.41
866.43	-21.81
866.75	-5.08
867.06	-10.06
867.38	-3.50
867.69	-28.70
868.01	-12.20
868.32	-11.86
868.64	-5.88
868.95	0.45
869.27	-16.04
869.58	1.92
869.90	-8.47
870.21	-10.73
870.53	-2.37
870.84	-1.02
871.15	-14.12
871.47	1.58
871.78	-0.56
872.10	-11.19
872.41	-0.56
872.73	-27.68
873.04	-13.56
873.36	-28.59
873.67	-10.28
873.98	-13.22
874.30	-14.58
874.61	-22.37
874.93	-31.19
875.24	-9.27
875.55	-22.94
875.87	-18.19
876.18	-16.16
876.49	-5.20
876.81	-15.03
877.12	-7.68
877.43	-22.26
877.75	-27.80
878.06	-9.49
878.37	-32.20
878.69	5.31
879.00	-1.36
879.31	-24.97
879.63	-6.55
879.94	-18.30
880.25	-28.36
880.57	-17.17
880.88	126.32
881.19	-5.65
881.50	-20.45
881.82	-24.86
882.13	-19.43
882.44	-20.34
882.76	-44.97
883.07	-34.69
883.38	-6.44
883.69	-19.10
884.01	-15.93
884.32	-15.48
884.63	-33.56
884.94	-18.87
885.25	-29.38
885.57	-10.17
885.88	-18.30
886.19	-18.08
886.50	-18.19
886.81	-25.99
887.13	-18.42
887.44	-31.30
887.75	-8.36
888.06	-30.28
888.37	-21.24
888.69	-18.08
889.00	-23.16
889.31	-15.82
889.62	-27.80
889.93	-18.87
890.24	-0.11
890.55	-13.78
890.87	-31.52
891.18	-5.99
891.49	-6.44
891.80	-22.82
892.11	-29.83
892.42	-25.20
892.73	-16.27
893.04	-10.62
893.35	-11.64
893.66	-14.69
893.98	-42.26
894.29	-43.95
894.60	-31.98
894.91	-27.91
895.22	-25.65
895.53	-2.03
895.84	-21.36
896.15	-16.16
896.46	-21.58
896.77	-23.95
897.08	-36.50
897.39	-35.59
897.70	-30.17
898.01	-23.05
898.32	-35.59
898.63	-17.29
898.94	-5.65
899.25	-19.77
899.56	-10.06
899.87	-20.90
900.18	-11.98
900.49	-28.13
900.80	-27.00
901.11	-28.13
901.42	-19.77
901.73	-2.15
902.04	-22.49
902.35	-12.99
902.66	-44.52
902.96	-17.85
903.27	-27.34
903.58	-28.81
903.89	-9.38
904.20	-18.98
904.51	-36.84
904.82	-31.86
905.13	-41.69
905.44	-30.17
905.75	-36.50
906.05	-26.78
906.36	-19.43
906.67	-21.36
906.98	-22.94
907.29	-21.02
907.60	-27.46
907.91	-9.27
908.21	-14.01
908.52	-25.88
908.83	-24.63
909.14	-18.64
909.45	-33.90
909.75	-33.45
910.06	-14.69
910.37	-22.49
910.68	-26.33
910.99	-17.63
911.29	-28.25
911.60	-24.86
911.91	-34.69
912.22	-26.33
912.52	-21.13
912.83	-27.34
913.14	-28.13
913.45	-40.79
913.75	-17.51
914.06	-24.97
914.37	-20.56
914.68	-22.03
914.98	-34.24
915.29	-36.72
915.60	-10.96
915.91	-21.24
916.21	-29.60
916.52	-22.60
916.83	-31.98
917.13	-22.60
917.44	-7.12
917.75	-14.91
918.05	-10.40
918.36	-21.47
918.67	-23.84
918.97	-31.07
919.28	-25.08
919.59	-43.28
919.89	-24.63
920.20	-34.58
920.50	-21.36
920.81	-45.08
921.12	-27.91
921.42	-34.35
921.73	-20.90
922.03	-45.31
922.34	-26.10
922.65	-13.56
922.95	-31.98
923.26	-21.02
923.56	-29.72
923.87	-43.95
924.18	-57.74
924.48	-23.73
924.79	-14.46
925.09	-15.37
925.40	-24.07
925.70	-17.85
926.01	-13.11
926.31	-4.63
926.62	-41.47
926.92	-21.36
927.23	-42.03
927.53	-23.28
927.84	-20.00
928.14	-28.47
928.45	-31.41
928.75	-20.68
929.06	-17.51
929.36	-13.90
929.67	-31.98
929.97	-17.63
930.28	-20.56
930.58	-24.07
930.89	-27.46
931.19	-23.50
931.49	-28.13
931.80	-35.37
932.10	6.55
932.41	-30.28
932.71	-35.25
933.01	-35.71
933.32	-13.45
933.62	-18.64
933.93	-11.75
934.23	-16.72
934.53	-25.42
934.84	-9.38
935.14	-33.33
935.45	-36.27
935.75	-29.49
936.05	-20.11
936.36	-31.19
936.66	-14.24
936.96	-37.06
937.27	-23.28
937.57	-19.43
937.87	-15.71
938.18	-18.53
938.48	-8.70
938.78	-24.63
939.08	-63.73
939.39	-18.98
939.69	-14.58
939.99	-30.85
940.30	-27.34
940.60	-9.60
940.90	-14.12
941.20	-41.24
941.51	-27.57
941.81	-21.69
942.11	-24.63
942.41	-32.43
942.72	-33.45
943.02	-30.06
943.32	-27.57
943.62	-29.38
943.93	-37.63
944.23	-21.47
944.53	-31.86
944.83	-24.52
945.13	-11.98
945.44	-13.45
945.74	-9.94
946.04	-26.67
946.34	-26.10
946.64	-42.26
946.94	-2.49
947.25	-16.27
947.55	-32.43
947.85	-36.16
948.15	-15.93
948.45	-32.99
948.75	-37.29
949.05	-43.95
949.35	-22.03
949.66	-13.33
949.96	-3.05
950.26	-31.98
950.56	-17.40
950.86	-36.04
951.16	-31.64
951.46	-29.83
951.76	-27.12
952.06	-23.05
952.36	-19.77
952.66	-26.44
952.96	-30.06
953.26	-42.15
953.57	-27.12
953.87	-29.38
954.17	-19.77
954.47	-17.63
954.77	-41.58
955.07	-34.58
955.37	-23.73
955.67	-22.03
955.97	-20.56
956.27	-26.44
956.57	-16.27
956.87	-31.07
957.17	-32.65
957.47	-21.81
957.77	-15.82
958.06	-16.38
958.36	-34.80
958.66	-18.87
958.96	-26.67
959.26	-33.78
959.56	-25.88
959.86	-34.46
960.16	-26.78
960.46	-20.34
960.76	-33.45
961.06	-24.29
961.36	-30.73
961.66	-10.73
961.95	-17.17
962.25	-18.19
962.55	-38.98
962.85	-12.09
963.15	-26.67
963.45	-12.43
963.75	-25.31
964.05	-23.50
964.34	-9.60
964.64	-32.65
964.94	-40.90
965.24	-48.93
965.54	-37.85
965.83	-29.38
966.13	-21.69
966.43	-27.34
966.73	-8.70
967.03	-21.58
967.32	-17.51
967.62	-9.27
967.92	-32.09
968.22	-25.88
968.52	-21.81
968.81	-38.98
969.11	-10.85
969.41	-22.26
969.71	-17.17
970.00	-11.41
970.30	-18.08
970.60	-18.08
970.90	-27.46
971.19	-22.37
971.49	-33.90
971.79	-40.45
972.08	-20.56
972.38	-25.42
972.68	-16.38
972.97	-19.32
973.27	-27.57
973.57	-38.42
973.87	-19.89
974.16	-37.40
974.46	-13.56
974.75	-28.02
975.05	-25.88
975.35	-34.01
975.64	-45.20
975.94	-20.34
976.24	-13.78
976.53	-32.99
976.83	-22.15
977.13	-20.23
977.42	-21.47
977.72	3.05
978.01	-41.69
978.31	-26.44
978.60	-31.98
978.90	-30.51
979.20	-26.10
979.49	-29.49
979.79	-27.91
980.08	-25.99
980.38	-18.42
980.67	-23.50
980.97	-30.73
981.26	-41.02
981.56	-14.69
981.86	-19.10
982.15	-25.08
982.45	-24.75
982.74	-8.47
983.04	-24.41
983.33	-39.21
983.63	-34.46
983.92	-28.02
984.21	-18.30
984.51	-18.19
984.80	-13.45
985.10	-35.59
985.39	-26.21
985.69	-23.95
985.98	-30.85
986.28	-28.81
986.57	-19.66
986.87	-6.55
987.16	-29.26
987.45	-30.06
987.75	-29.72
988.04	-20.23
988.34	-18.19
988.63	-31.86
988.92	-44.97
989.22	-24.07
989.51	-31.52
989.80	-28.70
990.10	-3.28
990.39	-25.65
990.69	-18.53
990.98	-46.33
991.27	-28.47
991.57	-21.58
991.86	-28.13
992.15	-22.60
992.45	-29.94
992.74	-32.77
993.03	-29.26
993.33	-29.04
993.62	-26.78
993.91	-30.39
994.20	-29.72
994.50	-43.16
994.79	-29.49
995.08	-42.26
995.37	-29.60
995.67	-22.49
995.96	-15.93
996.25	-23.16
996.54	-14.35
996.84	-11.75
997.13	-36.95
997.42	-34.35
997.71	-31.41
998.01	-28.25
998.30	-31.98
998.59	-20.79
998.88	-30.85
999.17	-14.46
999.47	-7.12
999.76	-8.14
1000.05	-16.38
1000.34	-10.06
1000.63	-25.31
1000.92	-19.21
1001.22	-20.45
1001.51	-33.45
1001.80	-18.19
1002.09	-17.85
1002.38	-17.85
1002.67	-24.18
1002.96	-30.28
1003.26	-25.31
1003.55	-39.43
1003.84	-16.27
1004.13	-17.17
1004.42	-17.97
1004.71	-52.65
1005.00	-16.84
1005.29	-16.95
1005.58	-19.77
1005.87	-28.59
1006.16	-34.69
1006.45	-20.11
1006.74	-27.23
1007.04	-19.77
1007.33	-15.71
1007.62	-43.73
1007.91	-24.52
1008.20	-38.53
1008.49	-46.67
1008.78	-33.45
1009.07	-23.39
1009.36	-23.28
1009.65	-19.43
1009.94	-31.30
1010.23	-16.72
1010.52	-36.27
1010.81	-20.00
1011.10	-32.65
1011.38	-19.21
1011.67	-26.67
1011.96	-18.19
1012.25	-31.86
1012.54	-23.73
1012.83	-36.38
1013.12	-25.65
1013.41	-40.79
1013.70	-26.89
1013.99	-43.61
1014.28	-18.30
1014.57	-31.07
1014.86	-13.45
1015.14	-10.40
1015.43	-31.98
1015.72	-27.12
1016.01	-34.01
1016.30	-40.90
1016.59	-41.92
1016.88	-20.23
1017.16	-9.04
1017.45	-25.76
1017.74	-17.74
1018.03	-16.38
1018.32	-19.89
1018.61	-29.38
1018.89	-13.33
1019.18	-22.15
1019.47	-31.19
1019.76	-42.37
1020.05	-14.80
1020.33	-19.43
1020.62	-1.02
1020.91	-1.02
1021.20	-18.19
1021.48	-23.28
1021.77	-24.86
1022.06	-24.07
1022.35	-24.07
1022.63	-19.43
1022.92	-34.91
1023.21	-11.86
1023.50	-36.72
1023.78	-38.42
1024.07	-9.83
1024.36	-34.01
1024.64	-21.69
1024.93	-36.50
1025.22	-27.80
1025.50	-14.01
1025.79	-12.32
1026.08	-18.87
1026.36	-22.26
1026.65	-40.79
1026.94	-9.72
1027.22	-35.14
1027.51	-22.71
1027.80	-18.87
1028.08	-26.78
1028.37	-35.71
1028.66	-32.20
1028.94	-17.29
>>>>>End Processed Spectral Data<<<<<
