SpectraSuite Data File
++++++++++++++++++++++++++++++++++++
Date: Thu Jun 15 11:40:14 BST 2017
User: Eng0000912
Dark Spectrum Present: Yes
Reference Spectrum Present: No
Number of Sampled Component Spectra: 1
Spectrometers: USB2+H04851
Integration Time (usec): 100000 (USB2+H04851)
Spectra Averaged: 20 (USB2+H04851)
Boxcar Smoothing: 0 (USB2+H04851)
Correct for Electrical Dark: No (USB2+H04851)
Strobe/Lamp Enabled: No (USB2+H04851)
Correct for Detector Non-linearity: No (USB2+H04851)
Correct for Stray Light: No (USB2+H04851)
Number of Pixels in Processed Spectrum: 2048
>>>>>Begin Processed Spectral Data<<<<<
340.07	-35.59
340.45	-35.59
340.82	-35.59
341.20	-26.89
341.58	-9.27
341.96	-13.45
342.34	-23.95
342.72	-1.81
343.10	-36.61
343.48	-14.46
343.85	-49.38
344.23	-14.58
344.61	-12.88
344.99	-12.20
345.37	-20.23
345.75	-28.59
346.13	-43.39
346.50	-20.79
346.88	-20.11
347.26	-31.52
347.64	-42.15
348.02	-33.90
348.40	-43.61
348.77	-9.49
349.15	-26.67
349.53	-20.90
349.91	-19.77
350.29	-2.03
350.66	-25.65
351.04	-29.04
351.42	-16.84
351.80	-26.33
352.18	-21.02
352.55	-16.72
352.93	-25.54
353.31	-20.23
353.69	-4.63
354.07	-25.42
354.44	-14.69
354.82	-17.85
355.20	-16.50
355.58	-26.78
355.95	-21.24
356.33	-30.85
356.71	-26.44
357.09	-38.53
357.46	-23.39
357.84	-34.12
358.22	-9.38
358.60	-27.46
358.97	-25.08
359.35	-20.90
359.73	-18.76
360.10	-10.96
360.48	-18.76
360.86	-23.50
361.24	-20.56
361.61	-10.96
361.99	-28.36
362.37	-27.00
362.74	-38.76
363.12	-26.21
363.50	-37.06
363.87	-11.53
364.25	-33.33
364.63	-33.67
365.01	-38.64
365.38	-34.24
365.76	-18.08
366.14	-22.82
366.51	-22.15
366.89	-15.14
367.27	-32.65
367.64	-10.28
368.02	-32.43
368.39	-8.02
368.77	-34.58
369.15	-19.32
369.52	-24.75
369.90	-20.68
370.28	-21.13
370.65	-15.37
371.03	-23.50
371.40	-30.51
371.78	-17.85
372.16	-28.36
372.53	-14.01
372.91	-6.44
373.28	-6.78
373.66	-34.46
374.04	-22.37
374.41	-13.67
374.79	-28.13
375.16	-35.48
375.54	-17.17
375.92	-12.43
376.29	-29.04
376.67	-16.38
377.04	-19.77
377.42	-24.97
377.79	-15.82
378.17	-24.29
378.55	-24.52
378.92	-17.74
379.30	-28.13
379.67	-32.54
380.05	-5.99
380.42	-18.87
380.80	-32.54
381.17	-24.63
381.55	-13.78
381.92	-23.05
382.30	-36.04
382.67	-30.17
383.05	-8.81
383.42	-25.65
383.80	-34.46
384.17	-5.88
384.55	-21.58
384.92	-28.13
385.30	-26.67
385.67	-20.56
386.05	-16.27
386.42	-12.09
386.80	-17.63
387.17	-35.71
387.55	-31.75
387.92	-23.73
388.30	-4.97
388.67	-27.34
389.04	-23.84
389.42	-31.64
389.79	-27.80
390.17	-13.67
390.54	-31.75
390.92	-29.72
391.29	-17.29
391.67	0.45
392.04	-28.13
392.41	-15.25
392.79	-30.96
393.16	-26.67
393.54	-26.33
393.91	-20.11
394.28	-6.10
394.66	-39.10
395.03	-35.03
395.41	-24.86
395.78	-15.37
396.15	-16.72
396.53	-24.97
396.90	-31.19
397.28	-16.72
397.65	-20.00
398.02	-15.59
398.40	-18.76
398.77	-21.24
399.14	-20.68
399.52	-39.55
399.89	-29.94
400.26	-32.32
400.64	-25.08
401.01	-18.76
401.38	-14.01
401.76	-14.69
402.13	-15.37
402.50	-1.69
402.88	-9.94
403.25	-28.81
403.62	-22.94
404.00	-18.53
404.37	-40.00
404.74	-34.80
405.12	-38.64
405.49	-15.59
405.86	-17.40
406.23	-22.60
406.61	-8.25
406.98	-41.35
407.35	-38.19
407.73	-30.85
408.10	-3.95
408.47	-15.48
408.84	-17.51
409.22	-29.60
409.59	-24.63
409.96	-25.99
410.33	-31.86
410.71	-12.77
411.08	-17.17
411.45	-20.90
411.82	-27.91
412.20	-22.49
412.57	-14.80
412.94	-19.21
413.31	-20.45
413.68	-24.97
414.06	-24.29
414.43	-45.76
414.80	-22.71
415.17	-7.01
415.55	-34.58
415.92	-19.66
416.29	-9.60
416.66	-30.62
417.03	-28.59
417.40	-20.45
417.78	-21.58
418.15	-22.15
418.52	-5.65
418.89	-6.67
419.26	-11.98
419.63	-28.13
420.01	-25.42
420.38	-22.15
420.75	-15.03
421.12	-20.45
421.49	-28.13
421.86	-12.66
422.23	-23.05
422.61	-31.64
422.98	-20.23
423.35	-17.74
423.72	-11.53
424.09	-35.71
424.46	-3.84
424.83	-23.28
425.20	-24.97
425.58	-17.63
425.95	-11.98
426.32	-48.13
426.69	-30.96
427.06	-16.38
427.43	-25.99
427.80	-19.77
428.17	-42.37
428.54	-6.67
428.91	-20.11
429.28	-15.03
429.65	-15.82
430.02	-27.57
430.40	-16.72
430.77	-21.24
431.14	-41.13
431.51	-23.39
431.88	-23.95
432.25	-14.80
432.62	-38.19
432.99	-21.13
433.36	-15.59
433.73	-17.74
434.10	-28.36
434.47	-34.58
434.84	-27.12
435.21	-14.80
435.58	-16.04
435.95	-1.47
436.32	-27.00
436.69	-23.62
437.06	-16.04
437.43	-29.26
437.80	-31.52
438.17	-16.16
438.54	-16.61
438.91	-14.24
439.28	-10.06
439.65	-35.25
440.02	-37.06
440.39	-29.26
440.76	-24.52
441.13	-21.92
441.49	-10.06
441.86	-25.20
442.23	-13.56
442.60	-11.30
442.97	-15.25
443.34	-9.38
443.71	-37.51
444.08	-43.05
444.45	-12.43
444.82	-23.39
445.19	-28.81
445.56	-25.99
445.93	-16.16
446.29	-31.86
446.66	-39.10
447.03	-36.04
447.40	-18.87
447.77	-19.43
448.14	-22.82
448.51	-17.63
448.88	-18.64
449.24	0.79
449.61	-36.50
449.98	-27.57
450.35	-22.49
450.72	-25.42
451.09	-10.28
451.46	3.39
451.82	-11.86
452.19	-26.89
452.56	-29.26
452.93	-31.86
453.30	-17.51
453.67	-9.72
454.03	-43.05
454.40	-35.59
454.77	-12.20
455.14	-32.20
455.51	-23.28
455.87	-23.73
456.24	-5.76
456.61	-15.37
456.98	-15.71
457.35	-23.73
457.71	-6.21
458.08	-27.46
458.45	-9.04
458.82	-17.40
459.19	-25.65
459.55	-10.62
459.92	-9.38
460.29	-9.27
460.66	-17.97
461.02	-25.20
461.39	-14.80
461.76	-16.61
462.13	-10.17
462.49	-18.53
462.86	-22.82
463.23	-30.17
463.59	-27.80
463.96	-24.86
464.33	-14.24
464.70	-27.34
465.06	-19.66
465.43	-2.71
465.80	-24.41
466.16	-25.08
466.53	-30.73
466.90	-11.64
467.26	-34.12
467.63	-19.55
468.00	-23.05
468.36	-36.95
468.73	-16.27
469.10	-22.60
469.46	-18.76
469.83	-28.93
470.20	-34.91
470.56	-20.11
470.93	-27.46
471.30	-20.23
471.66	-28.36
472.03	-11.07
472.40	-23.28
472.76	-19.10
473.13	-32.77
473.50	-19.89
473.86	-11.41
474.23	-21.02
474.59	-24.97
474.96	-45.20
475.33	-22.26
475.69	-17.97
476.06	-43.28
476.42	-18.98
476.79	-17.06
477.16	-23.84
477.52	-8.93
477.89	-32.09
478.25	-0.56
478.62	-32.09
478.98	-24.86
479.35	-10.28
479.72	-16.27
480.08	-12.88
480.45	-22.82
480.81	-23.50
481.18	-35.48
481.54	-26.44
481.91	-30.39
482.27	-22.26
482.64	-21.36
483.00	-25.42
483.37	-28.70
483.73	-32.43
484.10	-25.54
484.46	-28.81
484.83	-10.40
485.19	-23.62
485.56	-21.24
485.92	-18.19
486.29	-24.29
486.65	-26.67
487.02	-20.23
487.38	-28.36
487.75	-30.06
488.11	-40.79
488.48	-23.50
488.84	-26.67
489.21	-8.47
489.57	-42.94
489.94	-23.50
490.30	-10.73
490.66	-19.10
491.03	-18.98
491.39	-13.56
491.76	-24.29
492.12	-38.30
492.49	-36.72
492.85	-30.62
493.21	-17.97
493.58	-10.85
493.94	0.00
494.31	-14.01
494.67	-28.13
495.03	-13.22
495.40	-19.21
495.76	-30.28
496.13	-10.40
496.49	-22.37
496.85	-27.12
497.22	-13.22
497.58	-14.91
497.94	-23.95
498.31	3.50
498.67	-28.47
499.04	-27.57
499.40	-19.55
499.76	-6.55
500.13	-7.57
500.49	-26.33
500.85	-23.95
501.22	-9.15
501.58	-22.60
501.94	-6.67
502.31	-13.45
502.67	-3.50
503.03	-39.89
503.40	-24.75
503.76	-15.48
504.12	-22.94
504.48	-22.37
504.85	-12.99
505.21	-27.80
505.57	-25.42
505.94	-24.41
506.30	-17.85
506.66	-15.82
507.02	-25.31
507.39	-18.08
507.75	-44.86
508.11	-18.08
508.47	-7.23
508.84	-15.37
509.20	-11.86
509.56	-31.86
509.92	-31.98
510.29	-16.72
510.65	-14.46
511.01	-27.57
511.37	-43.95
511.74	-11.75
512.10	-11.98
512.46	-10.17
512.82	-17.97
513.18	-20.68
513.55	-10.06
513.91	-16.27
514.27	-33.67
514.63	-32.20
514.99	-18.64
515.35	-27.00
515.72	-29.38
516.08	-36.16
516.44	-32.09
516.80	-0.68
517.16	-21.24
517.52	-15.82
517.89	-28.36
518.25	-39.66
518.61	-37.63
518.97	-28.81
519.33	-29.38
519.69	-10.96
520.05	-17.63
520.42	-52.77
520.78	-31.52
521.14	-37.51
521.50	-17.74
521.86	-29.49
522.22	-18.76
522.58	-22.03
522.94	-20.11
523.30	-10.06
523.67	-14.91
524.03	-25.88
524.39	-21.02
524.75	-18.76
525.11	-13.78
525.47	-6.33
525.83	-29.49
526.19	-28.36
526.55	0.79
526.91	-6.67
527.27	-3.28
527.63	-10.51
527.99	-14.91
528.35	-10.73
528.71	-25.20
529.07	-10.73
529.43	-2.49
529.79	-22.03
530.15	-3.39
530.51	-22.26
530.87	-23.62
531.23	-3.84
531.59	-3.84
531.95	-30.62
532.31	-37.06
532.67	-27.80
533.03	-32.88
533.39	-7.91
533.75	-4.18
534.11	-35.48
534.47	-15.48
534.83	-12.09
535.19	-6.55
535.55	-23.28
535.91	-12.20
536.27	-33.56
536.63	-25.76
536.99	-29.04
537.35	-30.85
537.71	-10.17
538.07	-16.27
538.43	-20.90
538.79	-41.58
539.15	-25.99
539.51	-40.45
539.86	-14.80
540.22	-33.33
540.58	-25.20
540.94	-12.66
541.30	-24.18
541.66	-28.02
542.02	-9.60
542.38	-22.94
542.74	-3.95
543.09	-25.99
543.45	-13.90
543.81	-15.48
544.17	-12.88
544.53	-13.22
544.89	-16.27
545.25	-10.62
545.60	-19.66
545.96	-22.26
546.32	-12.66
546.68	-12.99
547.04	-20.45
547.40	-14.12
547.75	-28.70
548.11	-33.90
548.47	-22.37
548.83	-14.12
549.19	-15.48
549.55	-22.03
549.90	-17.51
550.26	-13.11
550.62	-13.56
550.98	-16.04
551.34	-18.42
551.69	-30.28
552.05	-23.16
552.41	-25.31
552.77	-21.36
553.12	-34.91
553.48	-10.28
553.84	-23.84
554.20	-18.19
554.55	-26.78
554.91	3.28
555.27	-24.97
555.63	-9.60
555.98	-5.54
556.34	-11.64
556.70	-3.16
557.05	-4.97
557.41	-28.02
557.77	-27.91
558.13	-25.54
558.48	-20.68
558.84	-24.86
559.20	0.11
559.55	-22.82
559.91	-17.63
560.27	-21.02
560.62	-18.08
560.98	-14.35
561.34	-5.76
561.69	-25.88
562.05	-20.23
562.41	-19.89
562.76	-36.27
563.12	-15.37
563.48	-14.91
563.83	-37.97
564.19	-21.58
564.55	-18.76
564.90	-4.07
565.26	-28.81
565.62	-28.47
565.97	-18.98
566.33	1.58
566.68	-16.61
567.04	-19.43
567.40	-2.26
567.75	-24.41
568.11	-7.12
568.46	-17.97
568.82	-18.53
569.18	-20.11
569.53	-25.99
569.89	-17.63
570.24	-5.08
570.60	-0.68
570.95	-1.81
571.31	7.23
571.66	20.56
572.02	7.80
572.38	30.06
572.73	51.07
573.09	30.06
573.44	54.69
573.80	38.53
574.15	41.69
574.51	24.18
574.86	51.75
575.22	44.86
575.57	24.75
575.93	14.46
576.28	19.21
576.64	18.98
576.99	37.17
577.35	33.90
577.70	28.59
578.06	16.38
578.41	37.85
578.77	18.08
579.12	-5.99
579.48	27.57
579.83	7.80
580.18	-0.23
580.54	2.49
580.89	7.91
581.25	-1.02
581.60	6.33
581.96	-25.42
582.31	-13.56
582.67	-12.09
583.02	-13.22
583.37	-17.29
583.73	-28.59
584.08	-16.72
584.44	-15.25
584.79	-11.41
585.14	-22.15
585.50	-12.99
585.85	-33.67
586.21	-31.41
586.56	-17.74
586.91	-27.00
587.27	-23.62
587.62	-12.32
587.97	-18.53
588.33	-18.64
588.68	-11.53
589.03	-20.45
589.39	-23.95
589.74	-14.91
590.09	-29.72
590.45	-11.86
590.80	-9.60
591.15	-5.99
591.51	-20.90
591.86	-14.01
592.21	-15.71
592.57	-35.71
592.92	-10.62
593.27	-11.64
593.63	-26.10
593.98	-31.86
594.33	-35.14
594.69	-16.50
595.04	-5.65
595.39	-2.71
595.74	-17.06
596.10	-21.92
596.45	-11.64
596.80	-24.29
597.15	-10.96
597.51	-7.01
597.86	-3.73
598.21	-12.20
598.56	9.15
598.92	-19.77
599.27	-11.98
599.62	3.84
599.97	-20.23
600.32	-12.54
600.68	-9.27
601.03	-4.63
601.38	-27.68
601.73	0.56
602.09	-26.33
602.44	-25.99
602.79	-29.83
603.14	-13.56
603.49	-29.04
603.84	-9.04
604.20	-40.79
604.55	-19.32
604.90	-29.26
605.25	-13.22
605.60	-14.69
605.95	-34.80
606.31	-24.52
606.66	-29.15
607.01	4.07
607.36	-32.20
607.71	-21.81
608.06	-11.86
608.41	-40.56
608.76	-31.52
609.12	-31.98
609.47	-15.82
609.82	-12.09
610.17	-23.28
610.52	-25.65
610.87	-6.78
611.22	-3.62
611.57	-19.66
611.92	-6.44
612.27	-1.81
612.62	-20.79
612.98	-20.00
613.33	-26.10
613.68	-10.51
614.03	-11.19
614.38	-11.53
614.73	-24.18
615.08	-23.16
615.43	-28.25
615.78	-18.08
616.13	-29.49
616.48	-23.73
616.83	-3.95
617.18	-32.20
617.53	-25.76
617.88	-34.69
618.23	-1.13
618.58	-9.83
618.93	-16.72
619.28	-4.97
619.63	-21.92
619.98	-14.91
620.33	-18.08
620.68	-15.37
621.03	-15.48
621.38	-1.81
621.73	-30.51
622.08	-16.04
622.43	-21.81
622.78	-23.95
623.13	-17.29
623.48	3.05
623.82	-22.49
624.17	-21.24
624.52	-38.76
624.87	-25.31
625.22	-27.57
625.57	-2.26
625.92	-33.11
626.27	-25.65
626.62	-22.26
626.97	-20.68
627.32	-22.71
627.66	-31.19
628.01	-3.95
628.36	-21.47
628.71	-36.38
629.06	-29.26
629.41	-25.20
629.76	-20.68
630.11	-22.37
630.45	-15.03
630.80	-23.39
631.15	-11.64
631.50	-17.06
631.85	-31.30
632.20	-24.29
632.54	-20.23
632.89	-15.14
633.24	5.76
633.59	-7.91
633.94	-11.75
634.29	-11.07
634.63	-14.80
634.98	-5.08
635.33	-34.35
635.68	-7.68
636.02	-11.75
636.37	-38.08
636.72	-10.28
637.07	-20.34
637.42	-20.00
637.76	-25.42
638.11	-16.72
638.46	-26.10
638.81	4.07
639.15	-26.78
639.50	-28.47
639.85	-15.03
640.20	-11.41
640.54	-13.67
640.89	-8.47
641.24	0.79
641.58	-12.66
641.93	-17.51
642.28	-14.80
642.63	-15.03
642.97	-23.73
643.32	-4.97
643.67	-24.63
644.01	-22.71
644.36	-23.62
644.71	-21.81
645.05	-8.14
645.40	-4.07
645.75	-32.43
646.09	-21.13
646.44	-13.22
646.79	-11.75
647.13	-16.95
647.48	4.18
647.83	-14.24
648.17	-13.45
648.52	-10.73
648.86	-10.28
649.21	-32.32
649.56	-5.88
649.90	-16.72
650.25	-25.99
650.60	-3.39
650.94	8.59
651.29	-11.30
651.63	-12.43
651.98	-21.69
652.33	-18.64
652.67	-13.90
653.02	-22.15
653.36	-11.41
653.71	-9.27
654.05	-10.73
654.40	-6.78
654.74	-15.71
655.09	-1.92
655.44	0.11
655.78	-34.91
656.13	-16.72
656.47	-18.08
656.82	-7.57
657.16	4.97
657.51	-32.20
657.85	-0.56
658.20	-11.53
658.54	-4.52
658.89	-6.89
659.23	15.93
659.58	9.49
659.92	-7.91
660.27	-15.59
660.61	-7.91
660.96	-15.71
661.30	-0.56
661.65	-19.55
661.99	-18.98
662.33	16.50
662.68	-6.67
663.02	0.11
663.37	2.60
663.71	18.19
664.06	9.27
664.40	22.03
664.75	11.19
665.09	-15.93
665.43	16.27
665.78	-5.76
666.12	4.63
666.47	9.49
666.81	14.12
667.15	6.55
667.50	-5.88
667.84	20.23
668.19	-2.37
668.53	4.75
668.87	3.39
669.22	22.37
669.56	23.50
669.90	26.44
670.25	11.19
670.59	24.86
670.93	7.12
671.28	38.53
671.62	25.76
671.96	15.14
672.31	46.44
672.65	47.00
672.99	37.51
673.34	28.70
673.68	6.89
674.02	36.38
674.37	48.47
674.71	30.51
675.05	35.14
675.40	38.08
675.74	47.00
676.08	51.19
676.42	74.91
676.77	39.43
677.11	47.80
677.45	46.67
677.79	50.62
678.14	41.58
678.48	60.68
678.82	69.04
679.16	56.16
679.51	73.44
679.85	45.99
680.19	61.69
680.53	43.50
680.88	83.84
681.22	87.00
681.56	72.09
681.90	76.95
682.24	78.30
682.59	77.06
682.93	85.53
683.27	100.56
683.61	100.00
683.95	74.24
684.29	85.99
684.64	105.76
684.98	103.61
685.32	103.73
685.66	113.22
686.00	139.77
686.34	92.43
686.69	119.32
687.03	125.19
687.37	124.40
687.71	125.53
688.05	127.68
688.39	127.34
688.73	151.30
689.07	127.45
689.41	156.83
689.76	142.82
690.10	139.66
690.44	142.03
690.78	155.02
691.12	152.99
691.46	149.26
691.80	187.79
692.14	175.25
692.48	197.28
692.82	180.90
693.16	202.03
693.50	209.03
693.84	214.46
694.18	216.04
694.53	216.27
694.87	220.67
695.21	232.54
695.55	254.00
695.89	271.97
696.23	260.67
696.57	266.09
696.91	279.88
697.25	271.97
697.59	293.55
697.93	303.04
698.27	317.62
698.61	307.45
698.95	318.30
699.29	328.35
699.63	325.30
699.97	336.60
700.30	337.51
700.64	357.73
700.98	367.79
701.32	389.82
701.66	386.09
702.00	408.12
702.34	405.87
702.68	407.79
703.02	461.23
703.36	447.67
703.70	458.63
704.04	476.60
704.38	486.99
704.72	503.38
705.05	522.47
705.39	530.38
705.73	542.13
706.07	547.44
706.41	564.05
706.75	582.13
707.09	616.93
707.43	603.26
707.77	609.25
708.10	635.92
708.44	654.11
708.78	661.11
709.12	673.32
709.46	716.25
709.80	715.01
710.13	746.65
710.47	742.13
710.81	766.65
711.15	777.27
711.49	792.97
711.82	837.49
712.16	845.97
712.50	869.47
712.84	903.03
713.18	896.93
713.51	921.44
713.85	969.58
714.19	941.33
714.53	992.52
714.87	1025.85
715.20	1035.57
715.54	1032.97
715.88	1114.89
716.22	1110.93
716.55	1157.71
716.89	1170.36
717.23	1199.40
717.57	1230.14
717.90	1272.85
718.24	1275.11
718.58	1298.04
718.91	1328.67
719.25	1398.04
719.59	1406.86
719.93	1420.64
720.26	1482.45
720.60	1515.67
720.94	1537.59
721.27	1589.56
721.61	1619.17
721.95	1623.91
722.28	1689.11
722.62	1744.70
722.96	1787.64
723.29	1840.97
723.63	1840.52
723.97	1894.19
724.30	1943.23
724.64	1995.77
724.97	2059.83
725.31	2099.49
725.65	2163.56
725.98	2213.95
726.32	2256.55
726.66	2332.93
726.99	2368.53
727.33	2431.24
727.66	2501.29
728.00	2588.41
728.33	2632.81
728.67	2706.26
729.01	2760.72
729.34	2806.37
729.68	2890.21
730.01	2947.72
730.35	3030.99
730.68	3098.79
731.02	3170.65
731.36	3222.18
731.69	3345.00
732.03	3416.41
732.36	3476.29
732.70	3561.15
733.03	3654.03
733.37	3744.31
733.70	3847.92
734.04	3934.02
734.37	3988.48
734.71	4055.83
735.04	4178.42
735.38	4289.94
735.71	4379.43
736.05	4497.62
736.38	4565.98
736.72	4637.84
737.05	4765.64
737.38	4869.82
737.72	4915.92
738.05	5062.80
738.39	5161.11
738.72	5283.59
739.06	5338.28
739.39	5444.15
739.73	5561.10
740.06	5676.01
740.39	5809.34
740.73	5940.30
741.06	6042.67
741.40	6113.51
741.73	6278.70
742.06	6370.91
742.40	6517.79
742.73	6611.13
743.07	6720.61
743.40	6868.86
743.73	6965.92
744.07	7094.28
744.40	7231.79
744.73	7401.50
745.07	7502.74
745.40	7629.86
745.73	7749.74
746.07	7918.89
746.40	7994.25
746.73	8110.41
747.07	8230.97
747.40	8373.23
747.73	8592.99
748.07	8641.81
748.40	8854.34
748.73	8976.49
749.07	9180.78
749.40	9259.53
749.73	9439.07
750.06	9540.31
750.40	9661.33
750.73	9845.39
751.06	10000.87
751.40	10164.70
751.73	10312.38
752.06	10470.91
752.39	10637.91
752.73	10772.26
753.06	10948.07
753.39	11055.75
753.72	11205.58
754.05	11310.78
754.39	11489.64
754.72	11652.91
755.05	11863.98
755.38	11958.89
755.72	12144.43
756.05	12210.75
756.38	12437.07
756.71	12550.52
757.04	12676.50
757.37	12797.74
757.71	12990.84
758.04	13064.63
758.37	13225.53
758.70	13345.86
759.03	13548.23
759.36	13697.38
759.70	13902.01
760.03	13972.97
760.36	14148.44
760.69	14320.98
761.02	14420.41
761.35	14504.48
761.68	14677.58
762.01	14806.28
762.35	14930.57
762.68	14993.62
763.01	15174.63
763.34	15274.85
763.67	15337.90
764.00	15439.48
764.33	15544.79
764.66	15564.22
764.99	15669.76
765.32	15719.59
765.65	15967.60
765.98	16161.50
766.31	15945.46
766.65	15989.98
766.98	16011.44
767.31	16074.61
767.64	16207.60
767.97	16099.69
768.30	16147.37
768.63	16256.75
768.96	16039.35
769.29	16117.77
769.62	16105.45
769.95	16150.31
770.28	16073.93
770.61	16010.65
770.94	16120.14
771.27	16127.03
771.60	16127.03
771.93	16066.47
772.26	15996.30
772.59	15904.89
772.92	15927.49
773.24	15861.62
773.57	15844.10
773.90	15679.47
774.23	15720.49
774.56	15643.09
774.89	15642.64
775.22	15359.26
775.55	15410.44
775.88	15209.09
776.21	15055.76
776.54	15031.02
776.87	14781.19
777.19	14748.99
777.52	14693.17
777.85	14506.51
778.18	14360.87
778.51	14156.80
778.84	14151.38
779.17	14031.04
779.50	13920.88
779.82	13683.48
780.15	13572.52
780.48	13400.44
780.81	13241.57
781.14	13192.87
781.47	13095.25
781.80	12818.42
782.12	12791.30
782.45	12537.64
782.78	12554.92
783.11	12265.55
783.44	12124.65
783.76	11997.76
784.09	11811.33
784.42	11660.37
784.75	11550.66
785.08	11413.15
785.40	11237.90
785.73	11120.95
786.06	10833.95
786.39	10749.10
786.71	10601.64
787.04	10544.36
787.37	10330.69
787.70	10082.67
788.02	9978.95
788.35	9792.06
788.68	9635.45
789.00	9463.03
789.33	9257.95
789.66	9130.49
789.99	8925.42
790.31	8767.79
790.64	8683.73
790.97	8507.12
791.29	8372.21
791.62	8207.47
791.95	8077.64
792.27	7881.26
792.60	7768.50
792.93	7657.54
793.25	7497.54
793.58	7401.95
793.91	7239.47
794.23	7068.51
794.56	6967.61
794.89	6821.40
795.21	6812.59
795.54	6597.79
795.87	6498.13
796.19	6340.85
796.52	6228.65
796.84	6105.94
797.17	5960.86
797.50	5872.05
797.82	5692.05
798.15	5638.72
798.47	5530.59
798.80	5370.48
799.12	5314.32
799.45	5165.74
799.78	5028.91
800.10	4959.64
800.43	4799.20
800.75	4706.32
801.08	4567.90
801.40	4487.90
801.73	4381.81
802.05	4245.20
802.38	4158.76
802.70	4068.25
803.03	3978.09
803.35	3864.53
803.68	3780.01
804.00	3683.41
804.33	3625.55
804.65	3502.51
804.98	3399.68
805.30	3280.70
805.63	3193.14
805.95	3134.04
806.28	3028.62
806.60	2887.83
806.93	2849.42
807.25	2793.49
807.58	2701.74
807.90	2617.67
808.22	2517.45
808.55	2476.43
808.87	2423.55
809.20	2340.73
809.52	2296.10
809.85	2227.17
810.17	2137.12
810.49	2041.64
810.82	2020.74
811.14	1978.82
811.47	1888.65
811.79	1803.23
812.11	1756.00
812.44	1711.71
812.76	1645.61
813.08	1594.20
813.41	1587.08
813.73	1469.68
814.05	1443.80
814.38	1406.29
814.70	1338.72
815.02	1295.79
815.35	1289.01
815.67	1211.72
815.99	1211.04
816.32	1163.92
816.64	1119.97
816.96	1082.80
817.29	1054.44
817.61	1029.69
817.93	1019.07
818.26	961.33
818.58	916.81
818.90	907.43
819.22	859.64
819.55	852.97
819.87	815.57
820.19	790.94
820.51	755.69
820.84	718.74
821.16	705.97
821.48	669.93
821.80	665.18
822.13	646.31
822.45	630.72
822.77	598.74
823.09	601.91
823.41	589.36
823.74	584.62
824.06	541.79
824.38	526.65
824.70	519.99
825.02	500.21
825.35	488.01
825.67	465.64
825.99	463.60
826.31	451.06
826.63	432.08
826.95	405.07
827.27	398.63
827.60	399.88
827.92	376.37
828.24	362.93
828.56	363.04
828.88	350.73
829.20	351.52
829.52	327.11
829.84	321.23
830.17	308.81
830.49	296.72
830.81	298.75
831.13	290.95
831.45	281.12
831.77	274.12
832.09	260.56
832.41	265.76
832.73	260.45
833.05	252.76
833.37	247.11
833.69	237.51
834.01	224.40
834.33	213.44
834.65	199.99
834.97	200.79
835.29	184.51
835.61	198.30
835.94	197.73
836.26	207.11
836.58	182.48
836.90	154.57
837.21	171.41
837.53	172.99
837.85	161.92
838.17	171.41
838.49	137.51
838.81	139.32
839.13	140.67
839.45	130.28
839.77	146.66
840.09	120.67
840.41	111.86
840.73	101.01
841.05	101.24
841.37	122.14
841.69	114.46
842.01	86.10
842.33	113.44
842.65	82.48
842.96	83.16
843.28	101.01
843.60	77.51
843.92	52.88
844.24	96.83
844.56	77.51
844.88	66.21
845.20	62.94
845.52	67.46
845.83	78.19
846.15	56.83
846.47	74.35
846.79	49.49
847.11	55.25
847.43	61.92
847.74	47.23
848.06	30.96
848.38	67.12
848.70	57.40
849.02	62.48
849.33	26.67
849.65	35.48
849.97	41.02
850.29	31.41
850.61	51.07
850.92	25.88
851.24	23.39
851.56	31.52
851.88	24.29
852.19	22.71
852.51	-0.79
852.83	37.97
853.15	13.67
853.46	15.37
853.78	9.38
854.10	16.95
854.42	18.98
854.73	22.49
855.05	-8.70
855.37	-5.42
855.68	33.56
856.00	16.84
856.32	-4.29
856.63	-1.92
856.95	-5.20
857.27	0.79
857.59	-1.13
857.90	3.84
858.22	3.16
858.53	-3.84
858.85	10.51
859.17	6.33
859.48	0.34
859.80	-11.41
860.12	-6.55
860.43	0.11
860.75	0.23
861.07	12.43
861.38	-17.85
861.70	4.29
862.01	-16.16
862.33	-20.45
862.65	-14.69
862.96	-4.07
863.28	-20.00
863.59	-4.97
863.91	16.04
864.22	12.32
864.54	-10.06
864.86	-4.07
865.17	-15.59
865.49	-5.76
865.80	-14.24
866.12	-21.13
866.43	-8.81
866.75	-8.59
867.06	-14.35
867.38	-20.68
867.69	-23.39
868.01	-28.25
868.32	-2.37
868.64	-1.81
868.95	-20.23
869.27	-17.40
869.58	-25.20
869.90	2.37
870.21	-19.77
870.53	11.30
870.84	-2.94
871.15	8.47
871.47	-2.82
871.78	1.24
872.10	-11.19
872.41	-7.80
872.73	-16.38
873.04	-20.23
873.36	-26.78
873.67	-16.16
873.98	-7.12
874.30	0.00
874.61	-30.96
874.93	-26.33
875.24	-16.50
875.55	-24.86
875.87	-3.84
876.18	-22.82
876.49	-12.88
876.81	-16.72
877.12	-17.97
877.43	-28.13
877.75	-11.19
878.06	-17.17
878.37	-23.28
878.69	-13.45
879.00	-6.78
879.31	-18.76
879.63	-10.96
879.94	-17.63
880.25	-25.88
880.57	-4.52
880.88	-7.57
881.19	-7.23
881.50	-13.11
881.82	-14.58
882.13	-31.86
882.44	-4.97
882.76	-31.30
883.07	-8.93
883.38	-12.54
883.69	-17.63
884.01	-30.96
884.32	-9.27
884.63	-33.56
884.94	-24.75
885.25	-25.31
885.57	-6.33
885.88	-15.03
886.19	-10.96
886.50	-20.56
886.81	-18.53
887.13	-6.33
887.44	-35.71
887.75	-14.91
888.06	-29.94
888.37	-20.68
888.69	-27.34
889.00	-33.90
889.31	-4.18
889.62	-20.23
889.93	-16.16
890.24	-9.94
890.55	-9.60
890.87	-23.73
891.18	-21.81
891.49	-19.43
891.80	-9.83
892.11	-23.28
892.42	-26.44
892.73	-14.24
893.04	-20.45
893.35	-11.98
893.66	-17.51
893.98	-34.46
894.29	-17.17
894.60	-33.56
894.91	-18.76
895.22	-29.38
895.53	-19.21
895.84	-35.71
896.15	-15.48
896.46	-22.60
896.77	-23.84
897.08	-21.92
897.39	-31.52
897.70	-16.84
898.01	3.73
898.32	-30.06
898.63	-22.26
898.94	-10.51
899.25	-19.55
899.56	-11.75
899.87	-14.12
900.18	-13.11
900.49	-17.29
900.80	-27.80
901.11	-31.75
901.42	-25.76
901.73	-17.85
902.04	-18.53
902.35	-18.98
902.66	-27.34
902.96	-13.33
903.27	-21.02
903.58	-16.84
903.89	-20.56
904.20	-11.75
904.51	-38.19
904.82	-34.35
905.13	-54.80
905.44	-33.45
905.75	-33.78
906.05	-31.86
906.36	-14.35
906.67	-30.73
906.98	-15.59
907.29	-12.88
907.60	-21.69
907.91	-23.39
908.21	-16.16
908.52	-34.01
908.83	-28.47
909.14	-20.68
909.45	-33.78
909.75	-25.88
910.06	-7.46
910.37	-9.27
910.68	-16.95
910.99	-13.22
911.29	-9.27
911.60	-30.62
911.91	-25.08
912.22	-23.62
912.52	-17.29
912.83	-25.88
913.14	-26.89
913.45	-32.88
913.75	-22.15
914.06	-21.69
914.37	-24.07
914.68	4.18
914.98	-24.52
915.29	-37.29
915.60	-24.86
915.91	-20.79
916.21	-22.60
916.52	-32.43
916.83	-32.65
917.13	-12.66
917.44	-23.73
917.75	-25.42
918.05	-20.90
918.36	-17.29
918.67	-36.61
918.97	-12.99
919.28	-31.52
919.59	-45.76
919.89	-24.29
920.20	-9.94
920.50	-33.56
920.81	-29.83
921.12	-37.85
921.42	-15.71
921.73	-24.63
922.03	-39.66
922.34	-25.08
922.65	-15.93
922.95	-18.98
923.26	-20.34
923.56	-21.13
923.87	-35.03
924.18	-35.37
924.48	-24.63
924.79	-4.75
925.09	-30.39
925.40	-22.82
925.70	-29.60
926.01	-19.66
926.31	-8.81
926.62	-37.17
926.92	-21.24
927.23	-41.35
927.53	-20.56
927.84	-15.48
928.14	-33.78
928.45	-25.31
928.75	-9.83
929.06	-14.46
929.36	-16.72
929.67	-33.78
929.97	-11.30
930.28	-5.65
930.58	-24.41
930.89	-31.75
931.19	-21.36
931.49	-23.84
931.80	-44.63
932.10	-1.36
932.41	-36.72
932.71	-13.78
933.01	-6.67
933.32	-16.16
933.62	-24.29
933.93	-20.68
934.23	-13.11
934.53	-22.26
934.84	-3.39
935.14	-23.16
935.45	-30.96
935.75	-6.89
936.05	-9.27
936.36	-28.47
936.66	-11.07
936.96	-36.04
937.27	-23.16
937.57	-11.75
937.87	-2.94
938.18	-25.54
938.48	-14.24
938.78	-21.58
939.08	-43.84
939.39	-17.51
939.69	-22.37
939.99	-7.23
940.30	-13.45
940.60	-20.68
940.90	-20.68
941.20	-23.73
941.51	-18.30
941.81	-13.90
942.11	-39.10
942.41	-33.56
942.72	-31.98
943.02	-24.07
943.32	-11.53
943.62	-31.64
943.93	-32.77
944.23	-22.37
944.53	-28.93
944.83	-33.90
945.13	-8.59
945.44	-23.62
945.74	-11.19
946.04	-35.59
946.34	-9.38
946.64	-18.30
946.94	1.24
947.25	-12.99
947.55	-32.20
947.85	-4.63
948.15	-32.77
948.45	-33.33
948.75	-35.71
949.05	-41.47
949.35	-19.10
949.66	-2.82
949.96	-16.16
950.26	-27.34
950.56	-14.69
950.86	-35.25
951.16	-50.06
951.46	-27.80
951.76	-20.45
952.06	-15.14
952.36	-14.91
952.66	-35.25
952.96	-27.46
953.26	-29.26
953.57	-16.84
953.87	-18.98
954.17	-22.60
954.47	-19.77
954.77	-22.94
955.07	-30.73
955.37	-26.10
955.67	-15.93
955.97	-0.68
956.27	-20.00
956.57	-21.69
956.87	-37.63
957.17	-43.16
957.47	-26.89
957.77	-17.29
958.06	-33.56
958.36	-21.47
958.66	-13.11
958.96	-24.52
959.26	-14.91
959.56	-21.36
959.86	-24.18
960.16	-20.45
960.46	-13.45
960.76	-11.86
961.06	-18.53
961.36	-14.58
961.66	-8.81
961.95	-19.89
962.25	-7.46
962.55	-30.85
962.85	-12.77
963.15	-25.20
963.45	-9.15
963.75	-24.97
964.05	-16.38
964.34	-20.34
964.64	-39.10
964.94	-43.50
965.24	-30.51
965.54	-19.89
965.83	-21.58
966.13	-16.72
966.43	-18.08
966.73	-10.51
967.03	-25.54
967.32	-24.18
967.62	-9.60
967.92	-33.45
968.22	-24.18
968.52	-23.84
968.81	-42.26
969.11	-6.33
969.41	-19.66
969.71	-10.06
970.00	-10.28
970.30	-3.95
970.60	-13.45
970.90	-16.61
971.19	-14.24
971.49	-40.00
971.79	-51.86
972.08	-19.66
972.38	-24.18
972.68	-9.60
972.97	-8.81
973.27	-19.55
973.57	-30.39
973.87	-22.49
974.16	-32.43
974.46	-7.34
974.75	-37.63
975.05	-26.33
975.35	-18.30
975.64	-30.17
975.94	-27.68
976.24	-10.17
976.53	-27.46
976.83	-22.82
977.13	-11.41
977.42	-21.47
977.72	8.59
978.01	-41.02
978.31	-32.99
978.60	-32.77
978.90	-21.81
979.20	-27.00
979.49	-20.79
979.79	-38.42
980.08	-15.82
980.38	-28.13
980.67	-39.10
980.97	-41.24
981.26	-24.18
981.56	-24.75
981.86	-20.79
982.15	-18.98
982.45	-19.21
982.74	-31.75
983.04	-23.95
983.33	-15.93
983.63	-27.80
983.92	-7.46
984.21	-16.95
984.51	-24.41
984.80	-21.13
985.10	-28.93
985.39	-31.07
985.69	-17.29
985.98	-52.32
986.28	-29.26
986.57	-25.76
986.87	-15.14
987.16	-35.25
987.45	-23.84
987.75	-17.63
988.04	-16.95
988.34	-9.15
988.63	-13.45
988.92	-31.30
989.22	-18.19
989.51	-31.07
989.80	-23.84
990.10	-3.16
990.39	-31.52
990.69	-41.35
990.98	-24.97
991.27	-9.49
991.57	-20.34
991.86	-24.52
992.15	-30.85
992.45	-36.27
992.74	-22.94
993.03	-33.45
993.33	-17.63
993.62	-15.82
993.91	-28.13
994.20	-22.94
994.50	-40.56
994.79	-17.06
995.08	-22.15
995.37	-12.32
995.67	-19.77
995.96	-21.47
996.25	-26.78
996.54	-12.66
996.84	-16.72
997.13	-24.86
997.42	-26.44
997.71	-34.24
998.01	-8.14
998.30	-25.76
998.59	-13.90
998.88	-28.02
999.17	-19.21
999.47	-9.72
999.76	-15.03
1000.05	-39.10
1000.34	-27.00
1000.63	-31.86
1000.92	-2.49
1001.22	-13.45
1001.51	-15.37
1001.80	-12.99
1002.09	-32.65
1002.38	-22.49
1002.67	-18.76
1002.96	-38.53
1003.26	-24.86
1003.55	-33.33
1003.84	-13.11
1004.13	-29.60
1004.42	-10.73
1004.71	-51.52
1005.00	-17.63
1005.29	-18.98
1005.58	-31.41
1005.87	-17.17
1006.16	-25.99
1006.45	-23.62
1006.74	-39.77
1007.04	-12.54
1007.33	-14.46
1007.62	-28.25
1007.91	-21.47
1008.20	-18.30
1008.49	-43.84
1008.78	-24.52
1009.07	-30.28
1009.36	-27.34
1009.65	-13.45
1009.94	-24.63
1010.23	-15.71
1010.52	-31.19
1010.81	-38.87
1011.10	-27.23
1011.38	-37.40
1011.67	-33.11
1011.96	-14.12
1012.25	-14.80
1012.54	-32.88
1012.83	-29.72
1013.12	-32.99
1013.41	-27.00
1013.70	-23.39
1013.99	-32.65
1014.28	-9.15
1014.57	-25.08
1014.86	-16.50
1015.14	-20.79
1015.43	-20.90
1015.72	-34.12
1016.01	-28.59
1016.30	-25.99
1016.59	-38.87
1016.88	-26.10
1017.16	-21.47
1017.45	-24.75
1017.74	-28.81
1018.03	-30.39
1018.32	-37.63
1018.61	-32.54
1018.89	-12.09
1019.18	-27.46
1019.47	-18.08
1019.76	-38.87
1020.05	-25.76
1020.33	-32.88
1020.62	-16.95
1020.91	-10.28
1021.20	-21.92
1021.48	-29.26
1021.77	-32.43
1022.06	-28.36
1022.35	-12.99
1022.63	-18.76
1022.92	-30.51
1023.21	-3.50
1023.50	-34.91
1023.78	-29.94
1024.07	-19.77
1024.36	-24.52
1024.64	-21.92
1024.93	-23.62
1025.22	-33.45
1025.50	-14.01
1025.79	-12.43
1026.08	-16.95
1026.36	-8.70
1026.65	-35.48
1026.94	-19.66
1027.22	-15.93
1027.51	-9.60
1027.80	-22.37
1028.08	-15.59
1028.37	-31.52
1028.66	-15.14
1028.94	-28.13
>>>>>End Processed Spectral Data<<<<<
