SpectraSuite Data File
++++++++++++++++++++++++++++++++++++
Date: Thu Jun 15 11:37:02 BST 2017
User: Eng0000912
Dark Spectrum Present: Yes
Reference Spectrum Present: No
Number of Sampled Component Spectra: 1
Spectrometers: USB2+H04851
Integration Time (usec): 100000 (USB2+H04851)
Spectra Averaged: 20 (USB2+H04851)
Boxcar Smoothing: 0 (USB2+H04851)
Correct for Electrical Dark: No (USB2+H04851)
Strobe/Lamp Enabled: No (USB2+H04851)
Correct for Detector Non-linearity: No (USB2+H04851)
Correct for Stray Light: No (USB2+H04851)
Number of Pixels in Processed Spectrum: 2048
>>>>>Begin Processed Spectral Data<<<<<
340.07	-21.02
340.45	-21.02
340.82	-21.02
341.20	-28.02
341.58	-23.50
341.96	4.41
342.34	-12.77
342.72	-19.66
343.10	-20.56
343.48	-25.88
343.85	-35.03
344.23	-14.91
344.61	-1.92
344.99	-2.60
345.37	-4.97
345.75	-15.14
346.13	-27.91
346.50	-8.25
346.88	-20.68
347.26	-29.72
347.64	-28.25
348.02	-22.60
348.40	-23.73
348.77	-13.78
349.15	-18.08
349.53	-14.91
349.91	-32.99
350.29	-14.46
350.66	-16.27
351.04	-7.46
351.42	8.14
351.80	1.24
352.18	-9.15
352.55	2.60
352.93	-9.60
353.31	-11.53
353.69	-18.98
354.07	-19.55
354.44	-9.15
354.82	-15.37
355.20	-18.08
355.58	-8.59
355.95	-22.26
356.33	-28.47
356.71	-18.64
357.09	-36.95
357.46	-30.73
357.84	-20.34
358.22	-11.98
358.60	-28.47
358.97	-32.88
359.35	-21.13
359.73	-4.18
360.10	-17.63
360.48	-9.15
360.86	-29.04
361.24	-13.11
361.61	-22.15
361.99	-16.38
362.37	-27.80
362.74	-21.81
363.12	-23.62
363.50	-23.05
363.87	1.69
364.25	-29.60
364.63	-28.25
365.01	-16.95
365.38	-22.15
365.76	-5.08
366.14	-30.06
366.51	-29.26
366.89	-27.34
367.27	-22.71
367.64	4.86
368.02	-34.91
368.39	2.26
368.77	-21.69
369.15	-23.62
369.52	0.45
369.90	-3.84
370.28	-7.23
370.65	8.02
371.03	-7.80
371.40	-16.16
371.78	-19.32
372.16	-13.90
372.53	-19.66
372.91	-10.06
373.28	-1.92
373.66	-15.37
374.04	-18.42
374.41	-22.26
374.79	-21.69
375.16	-26.44
375.54	-24.52
375.92	-8.70
376.29	-24.86
376.67	-19.43
377.04	-19.89
377.42	-8.47
377.79	-16.16
378.17	-24.97
378.55	-23.28
378.92	-4.86
379.30	-11.19
379.67	-29.72
380.05	3.50
380.42	-8.59
380.80	-3.84
381.17	-19.43
381.55	-17.51
381.92	-21.36
382.30	-20.34
382.67	-7.01
383.05	-13.11
383.42	-26.55
383.80	-19.77
384.17	11.07
384.55	-20.90
384.92	-28.93
385.30	-26.21
385.67	-13.56
386.05	-20.11
386.42	-17.74
386.80	-8.70
387.17	-20.45
387.55	-19.55
387.92	-20.68
388.30	-12.09
388.67	-14.35
389.04	-31.19
389.42	-14.58
389.79	-11.64
390.17	-13.56
390.54	-4.52
390.92	-10.85
391.29	-36.27
391.67	-5.76
392.04	-17.97
392.41	-1.47
392.79	-23.39
393.16	-17.63
393.54	-5.08
393.91	-10.40
394.28	-2.71
394.66	-21.02
395.03	-16.04
395.41	-12.20
395.78	-19.66
396.15	-5.54
396.53	-38.42
396.90	-12.20
397.28	-19.55
397.65	-15.93
398.02	-3.62
398.40	-0.68
398.77	-24.86
399.14	-18.08
399.52	-19.21
399.89	-29.04
400.26	-14.24
400.64	-7.01
401.01	-22.15
401.38	-10.06
401.76	-14.58
402.13	8.36
402.50	8.70
402.88	-0.00
403.25	-13.11
403.62	-26.10
404.00	-2.60
404.37	-20.45
404.74	-8.81
405.12	-34.80
405.49	-10.73
405.86	-5.99
406.23	-17.40
406.61	3.28
406.98	-28.47
407.35	-29.15
407.73	-21.58
408.10	-9.83
408.47	-18.87
408.84	-12.43
409.22	-21.02
409.59	-1.02
409.96	-31.30
410.33	-25.65
410.71	-15.59
411.08	-6.33
411.45	-7.46
411.82	-4.07
412.20	-10.40
412.57	-4.63
412.94	-25.31
413.31	-31.75
413.68	-22.82
414.06	-29.83
414.43	-19.66
414.80	-40.45
415.17	-7.46
415.55	-2.82
415.92	-13.67
416.29	-20.79
416.66	-17.40
417.03	-16.72
417.40	-10.40
417.78	-16.16
418.15	-3.50
418.52	-14.35
418.89	0.45
419.26	0.56
419.63	-20.23
420.01	-20.45
420.38	-11.53
420.75	-21.13
421.12	-18.98
421.49	-17.51
421.86	7.34
422.23	-5.99
422.61	-17.85
422.98	-29.94
423.35	-31.41
423.72	-14.91
424.09	-31.30
424.46	4.63
424.83	-44.29
425.20	-30.06
425.58	-6.55
425.95	-12.09
426.32	-13.33
426.69	-7.34
427.06	-7.23
427.43	-21.24
427.80	-28.59
428.17	-21.02
428.54	-6.33
428.91	-10.17
429.28	-12.88
429.65	-12.54
430.02	-14.01
430.40	-8.70
430.77	-24.63
431.14	-30.96
431.51	-15.71
431.88	-15.03
432.25	-21.81
432.62	-15.71
432.99	-18.98
433.36	-17.51
433.73	-29.04
434.10	-20.45
434.47	-23.62
434.84	-14.12
435.21	-4.07
435.58	-6.55
435.95	-21.24
436.32	-15.71
436.69	-22.94
437.06	-17.17
437.43	-7.57
437.80	-13.11
438.17	-9.60
438.54	-27.00
438.91	-24.75
439.28	-5.31
439.65	-13.67
440.02	-21.36
440.39	-33.45
440.76	-17.29
441.13	-4.63
441.49	-20.34
441.86	-28.13
442.23	-10.06
442.60	-18.53
442.97	-12.20
443.34	-17.40
443.71	-24.41
444.08	-32.20
444.45	-4.75
444.82	-18.64
445.19	-4.63
445.56	-24.18
445.93	-4.41
446.29	-19.32
446.66	-25.08
447.03	-16.27
447.40	-16.04
447.77	2.82
448.14	-19.10
448.51	-14.91
448.88	9.04
449.24	-3.16
449.61	-31.30
449.98	-24.75
450.35	-18.64
450.72	-17.40
451.09	-17.51
451.46	-8.25
451.82	-13.11
452.19	-4.18
452.56	-22.15
452.93	-19.21
453.30	-22.94
453.67	-7.80
454.03	-16.04
454.40	-22.60
454.77	-4.97
455.14	-21.24
455.51	-16.16
455.87	-32.65
456.24	-1.24
456.61	-9.27
456.98	-30.17
457.35	-13.11
457.71	-10.40
458.08	-21.13
458.45	-1.47
458.82	-12.88
459.19	-24.41
459.55	-6.89
459.92	-11.75
460.29	-5.65
460.66	-27.91
461.02	-22.60
461.39	-12.99
461.76	-16.72
462.13	-11.86
462.49	-11.53
462.86	-9.27
463.23	-13.56
463.59	-16.38
463.96	-5.99
464.33	-10.06
464.70	-5.42
465.06	-18.53
465.43	-10.85
465.80	-28.25
466.16	-23.39
466.53	-18.19
466.90	-7.46
467.26	-30.06
467.63	-23.84
468.00	-21.81
468.36	-11.64
468.73	-13.22
469.10	-20.90
469.46	-3.95
469.83	-11.30
470.20	-24.63
470.56	-32.43
470.93	-17.74
471.30	-29.60
471.66	-17.97
472.03	-6.55
472.40	-10.40
472.76	-5.88
473.13	-28.36
473.50	-22.60
473.86	-8.14
474.23	-23.95
474.59	-20.90
474.96	-33.45
475.33	-8.02
475.69	-0.79
476.06	-38.98
476.42	-15.48
476.79	-10.28
477.16	-20.11
477.52	-13.56
477.89	-27.57
478.25	-14.01
478.62	-22.26
478.98	-6.67
479.35	-15.82
479.72	-31.86
480.08	-15.71
480.45	-16.16
480.81	-14.01
481.18	-29.49
481.54	-33.56
481.91	-32.88
482.27	-16.95
482.64	-9.15
483.00	-21.92
483.37	-19.55
483.73	-26.78
484.10	-16.84
484.46	-20.56
484.83	-8.02
485.19	-24.63
485.56	-13.56
485.92	1.24
486.29	-15.59
486.65	-32.20
487.02	-17.29
487.38	-11.98
487.75	-14.80
488.11	-9.72
488.48	-9.72
488.84	-20.90
489.21	-17.85
489.57	-22.94
489.94	-31.75
490.30	11.86
490.66	-33.67
491.03	-13.11
491.39	-16.38
491.76	-17.74
492.12	-21.36
492.49	-11.30
492.85	-1.69
493.21	-19.77
493.58	-11.75
493.94	21.02
494.31	-4.52
494.67	-18.87
495.03	-1.24
495.40	-13.45
495.76	-25.08
496.13	0.11
496.49	-8.81
496.85	-2.71
497.22	-7.01
497.58	-15.03
497.94	-12.99
498.31	0.11
498.67	-22.37
499.04	-19.32
499.40	-0.23
499.76	-21.69
500.13	-39.21
500.49	-19.55
500.85	-10.28
501.22	-19.43
501.58	-12.99
501.94	-1.69
502.31	-5.65
502.67	-4.52
503.03	-36.72
503.40	-10.28
503.76	-19.43
504.12	-0.34
504.48	-9.27
504.85	-12.09
505.21	-19.89
505.57	-31.19
505.94	-8.25
506.30	8.02
506.66	-9.49
507.02	-20.68
507.39	-12.66
507.75	-31.07
508.11	-20.34
508.47	-22.49
508.84	-22.60
509.20	-16.38
509.56	-23.62
509.92	-23.28
510.29	-14.69
510.65	-28.36
511.01	-28.93
511.37	-26.78
511.74	-4.97
512.10	-7.34
512.46	-2.82
512.82	-6.10
513.18	-20.34
513.55	-17.17
513.91	-1.24
514.27	-17.51
514.63	-12.09
514.99	-17.17
515.35	-13.22
515.72	-16.38
516.08	-14.12
516.44	-18.08
516.80	-11.75
517.16	-26.78
517.52	-11.07
517.89	-10.73
518.25	-32.54
518.61	-24.18
518.97	-2.49
519.33	-34.69
519.69	8.81
520.05	-27.80
520.42	-27.46
520.78	-9.15
521.14	-16.72
521.50	-10.85
521.86	-18.98
522.22	-2.94
522.58	-23.39
522.94	-17.85
523.30	-18.64
523.67	-5.42
524.03	-26.67
524.39	-25.54
524.75	-27.34
525.11	-20.11
525.47	-9.38
525.83	-16.72
526.19	-12.54
526.55	0.00
526.91	-9.60
527.27	-8.47
527.63	-20.68
527.99	-8.81
528.35	-15.71
528.71	-26.78
529.07	-12.43
529.43	4.52
529.79	-14.01
530.15	1.02
530.51	-23.73
530.87	-4.52
531.23	-2.82
531.59	-3.50
531.95	-14.69
532.31	-18.87
532.67	-25.54
533.03	-31.07
533.39	-14.91
533.75	-11.07
534.11	-31.75
534.47	7.46
534.83	-12.09
535.19	-5.08
535.55	-7.91
535.91	-31.75
536.27	-22.26
536.63	-12.20
536.99	-14.35
537.35	-14.12
537.71	-14.46
538.07	-9.15
538.43	-3.16
538.79	-29.94
539.15	-16.38
539.51	-16.95
539.86	-9.38
540.22	-9.72
540.58	-33.33
540.94	-21.58
541.30	-18.19
541.66	-22.82
542.02	-0.23
542.38	-27.12
542.74	-1.02
543.09	-20.56
543.45	-7.01
543.81	-24.97
544.17	-12.54
544.53	-7.80
544.89	-10.17
545.25	-13.78
545.60	-30.85
545.96	-26.10
546.32	-18.87
546.68	6.44
547.04	-12.09
547.40	-13.67
547.75	-14.01
548.11	-38.64
548.47	-19.10
548.83	-2.82
549.19	-20.56
549.55	-11.53
549.90	-39.21
550.26	-11.07
550.62	-11.41
550.98	-9.60
551.34	-5.42
551.69	-18.42
552.05	-25.88
552.41	-25.54
552.77	-15.03
553.12	-14.46
553.48	-8.59
553.84	-12.43
554.20	-7.91
554.55	-13.56
554.91	-2.71
555.27	-29.49
555.63	-5.08
555.98	1.58
556.34	-9.38
556.70	-17.29
557.05	-7.57
557.41	-28.59
557.77	-24.75
558.13	-24.07
558.48	-24.52
558.84	-19.77
559.20	2.26
559.55	-20.45
559.91	-22.03
560.27	-20.00
560.62	-20.00
560.98	-17.63
561.34	7.23
561.69	11.75
562.05	-27.34
562.41	-2.15
562.76	-19.32
563.12	-12.66
563.48	-8.70
563.83	-12.20
564.19	-12.88
564.55	-10.85
564.90	-10.40
565.26	-13.22
565.62	-22.03
565.97	-7.80
566.33	-11.86
566.68	-14.01
567.04	-18.42
567.40	10.06
567.75	-17.40
568.11	-4.29
568.46	-30.73
568.82	-4.86
569.18	-11.75
569.53	2.71
569.89	-16.61
570.24	-0.90
570.60	-14.35
570.95	1.13
571.31	-0.23
571.66	3.50
572.02	32.99
572.38	42.15
572.73	64.29
573.09	17.97
573.44	78.98
573.80	52.54
574.15	33.22
574.51	30.96
574.86	47.57
575.22	62.03
575.57	37.63
575.93	38.98
576.28	32.54
576.64	29.49
576.99	46.78
577.35	40.90
577.70	38.87
578.06	26.21
578.41	37.40
578.77	29.72
579.12	17.63
579.48	23.39
579.83	14.01
580.18	8.47
580.54	12.43
580.89	29.15
581.25	1.58
581.60	9.49
581.96	-0.11
582.31	2.37
582.67	-7.12
583.02	-1.24
583.37	12.09
583.73	-33.90
584.08	-19.43
584.44	-8.81
584.79	-12.88
585.14	-10.62
585.50	-19.43
585.85	-30.06
586.21	-2.60
586.56	-3.05
586.91	-30.73
587.27	-8.36
587.62	-21.24
587.97	-18.87
588.33	-7.01
588.68	0.56
589.03	-7.12
589.39	-29.04
589.74	-10.96
590.09	-16.50
590.45	-1.36
590.80	0.90
591.15	-9.72
591.51	-31.19
591.86	-2.37
592.21	-8.36
592.57	-10.51
592.92	-7.01
593.27	-10.17
593.63	0.90
593.98	-19.10
594.33	-32.99
594.69	-14.46
595.04	-15.03
595.39	-6.44
595.74	0.56
596.10	-10.85
596.45	-17.85
596.80	-26.78
597.15	-19.66
597.51	-2.71
597.86	-17.17
598.21	-27.91
598.56	0.56
598.92	-15.14
599.27	-20.56
599.62	-4.29
599.97	-17.40
600.32	8.25
600.68	3.73
601.03	5.76
601.38	-15.37
601.73	11.07
602.09	-23.84
602.44	-9.04
602.79	-28.70
603.14	-4.41
603.49	-16.16
603.84	-9.38
604.20	-8.81
604.55	-6.10
604.90	-7.12
605.25	-6.10
605.60	-15.82
605.95	-27.46
606.31	-25.08
606.66	-12.43
607.01	4.63
607.36	-22.49
607.71	-12.77
608.06	-2.26
608.41	-23.05
608.76	-18.87
609.12	-15.93
609.47	-12.54
609.82	-12.77
610.17	-1.24
610.52	2.37
610.87	-9.27
611.22	-11.53
611.57	-10.28
611.92	-11.30
612.27	-3.73
612.62	-11.41
612.98	-9.49
613.33	-26.78
613.68	-9.60
614.03	-7.91
614.38	-5.65
614.73	-24.18
615.08	-15.14
615.43	-5.08
615.78	-15.59
616.13	-25.54
616.48	-12.20
616.83	1.36
617.18	-36.50
617.53	-11.98
617.88	-12.77
618.23	-9.15
618.58	-11.75
618.93	-7.91
619.28	2.15
619.63	-13.45
619.98	-15.93
620.33	-14.91
620.68	-8.14
621.03	-14.58
621.38	-0.79
621.73	-28.81
622.08	-13.22
622.43	-17.17
622.78	-6.21
623.13	-19.21
623.48	3.62
623.82	-9.94
624.17	-35.25
624.52	-31.52
624.87	-17.74
625.22	-31.41
625.57	0.45
625.92	-25.88
626.27	-11.98
626.62	-0.23
626.97	-16.04
627.32	-9.60
627.66	-18.98
628.01	-12.66
628.36	-18.98
628.71	-28.13
629.06	2.71
629.41	-8.47
629.76	-13.11
630.11	-16.95
630.45	-14.35
630.80	-14.80
631.15	7.80
631.50	-5.76
631.85	-28.25
632.20	-6.21
632.54	-31.30
632.89	-6.33
633.24	-5.42
633.59	-9.49
633.94	-4.97
634.29	-15.82
634.63	0.00
634.98	14.46
635.33	-25.76
635.68	-26.89
636.02	-14.91
636.37	-39.10
636.72	2.37
637.07	-29.04
637.42	-4.75
637.76	-25.08
638.11	2.37
638.46	-5.42
638.81	5.54
639.15	-14.69
639.50	-29.60
639.85	-16.61
640.20	-23.95
640.54	-8.02
640.89	3.62
641.24	9.15
641.58	-11.30
641.93	-9.60
642.28	3.05
642.63	-6.67
642.97	-4.07
643.32	-11.07
643.67	-15.03
644.01	-32.65
644.36	-26.33
644.71	-13.11
645.05	0.11
645.40	0.68
645.75	-23.84
646.09	-20.00
646.44	-6.55
646.79	2.37
647.13	-29.04
647.48	-1.13
647.83	-2.15
648.17	-22.03
648.52	-8.47
648.86	-29.60
649.21	-8.36
649.56	-16.72
649.90	-12.20
650.25	-9.04
650.60	-18.53
650.94	11.07
651.29	-11.30
651.63	8.14
651.98	-8.93
652.33	-12.32
652.67	-19.55
653.02	-20.79
653.36	-17.51
653.71	-5.76
654.05	-8.81
654.40	1.02
654.74	-10.62
655.09	4.75
655.44	5.08
655.78	-23.39
656.13	-8.02
656.47	0.90
656.82	-23.05
657.16	9.04
657.51	-8.70
657.85	-3.73
658.20	-1.24
658.54	-13.33
658.89	-3.95
659.23	0.23
659.58	16.16
659.92	4.63
660.27	-16.04
660.61	-15.37
660.96	-9.72
661.30	-9.83
661.65	-2.26
661.99	-20.45
662.33	16.72
662.68	-17.97
663.02	-9.27
663.37	12.09
663.71	9.60
664.06	8.81
664.40	7.34
664.75	2.49
665.09	-21.47
665.43	20.00
665.78	1.92
666.12	21.47
666.47	13.33
666.81	-0.34
667.15	-1.13
667.50	6.10
667.84	4.63
668.19	17.29
668.53	10.85
668.87	0.34
669.22	18.42
669.56	-0.11
669.90	19.32
670.25	11.41
670.59	20.90
670.93	5.76
671.28	18.87
671.62	30.06
671.96	15.37
672.31	31.75
672.65	28.47
672.99	34.80
673.34	4.18
673.68	12.88
674.02	39.10
674.37	23.73
674.71	23.73
675.05	29.15
675.40	24.41
675.74	41.92
676.08	35.25
676.42	56.95
676.77	26.21
677.11	29.83
677.45	46.21
677.79	42.15
678.14	48.47
678.48	48.36
678.82	55.93
679.16	45.54
679.51	61.47
679.85	28.70
680.19	46.55
680.53	44.63
680.88	65.99
681.22	63.05
681.56	62.71
681.90	58.87
682.24	55.37
682.59	51.98
682.93	81.58
683.27	82.03
683.61	71.86
683.95	37.97
684.29	48.81
684.64	82.48
684.98	79.32
685.32	81.35
685.66	94.12
686.00	94.46
686.34	74.46
686.69	100.68
687.03	98.98
687.37	101.24
687.71	112.09
688.05	114.57
688.39	118.87
688.73	135.59
689.07	97.51
689.41	120.34
689.76	107.79
690.10	121.47
690.44	124.40
690.78	135.82
691.12	122.03
691.46	122.82
691.80	134.23
692.14	148.24
692.48	149.04
692.82	148.13
693.16	170.28
693.50	175.14
693.84	168.58
694.18	170.17
694.53	179.09
694.87	189.49
695.21	198.98
695.55	199.88
695.89	197.51
696.23	216.04
696.57	193.33
696.91	213.55
697.25	211.86
697.59	231.97
697.93	220.45
698.27	249.15
698.61	232.08
698.95	247.79
699.29	256.72
699.63	260.11
699.97	255.47
700.30	267.34
700.64	294.34
700.98	288.69
701.32	307.56
701.66	314.23
702.00	306.09
702.34	320.44
702.68	338.07
703.02	366.88
703.36	358.63
703.70	379.54
704.04	388.80
704.38	388.46
704.72	397.84
705.05	409.37
705.39	421.91
705.73	431.85
706.07	439.88
706.41	437.73
706.75	459.76
707.09	478.52
707.43	484.39
707.77	477.73
708.10	502.02
708.44	517.84
708.78	531.40
709.12	545.41
709.46	557.39
709.80	537.95
710.13	597.50
710.47	617.84
710.81	609.93
711.15	626.88
711.49	633.09
711.82	653.09
712.16	679.19
712.50	678.29
712.84	724.50
713.18	709.81
713.51	740.09
713.85	749.58
714.19	759.19
714.53	779.87
714.87	815.46
715.20	834.89
715.54	833.31
715.88	871.16
716.22	870.71
716.55	914.78
716.89	917.49
717.23	943.14
717.57	953.65
717.90	989.01
718.24	993.08
718.58	1031.84
718.91	1047.20
719.25	1077.15
719.59	1108.90
719.93	1128.22
720.26	1169.91
720.60	1187.65
720.94	1219.06
721.27	1272.96
721.61	1262.34
721.95	1292.40
722.28	1336.80
722.62	1358.50
722.96	1400.08
723.29	1429.34
723.63	1460.98
723.97	1475.55
724.30	1524.37
724.64	1582.90
724.97	1609.68
725.31	1648.32
725.65	1672.50
725.98	1725.15
726.32	1774.42
726.66	1814.87
726.99	1864.58
727.33	1893.62
727.66	1934.30
728.00	2003.00
728.33	2059.95
728.67	2139.04
729.01	2178.13
729.34	2218.13
729.68	2256.89
730.01	2301.63
730.35	2371.69
730.68	2432.59
731.02	2457.22
731.36	2548.63
731.69	2613.72
732.03	2660.50
732.36	2738.57
732.70	2790.44
733.03	2871.45
733.37	2915.18
733.70	2978.90
734.04	3075.29
734.37	3113.48
734.71	3201.27
735.04	3282.40
735.38	3365.45
735.71	3441.27
736.05	3520.25
736.38	3547.25
736.72	3641.94
737.05	3715.16
737.38	3812.10
737.72	3844.64
738.05	3953.46
738.39	4012.44
738.72	4122.72
739.06	4202.60
739.39	4272.43
739.73	4351.07
740.06	4408.47
740.39	4514.23
740.73	4638.18
741.06	4687.45
741.40	4767.11
741.73	4886.54
742.06	4977.95
742.40	5073.54
742.73	5176.14
743.07	5262.91
743.40	5367.32
743.73	5444.94
744.07	5518.05
744.40	5660.98
744.73	5754.42
745.07	5856.46
745.40	5962.33
745.73	6054.98
746.07	6167.63
746.40	6267.29
746.73	6338.03
747.07	6435.76
747.40	6508.76
747.73	6722.99
748.07	6718.69
748.40	6908.07
748.73	6969.20
749.07	7150.43
749.40	7221.84
749.73	7332.46
750.06	7419.92
750.40	7493.48
750.73	7610.31
751.06	7759.12
751.40	7896.52
751.73	8014.37
752.06	8117.07
752.39	8243.17
752.73	8390.06
753.06	8483.84
753.39	8540.79
753.72	8695.70
754.05	8782.03
754.39	8896.04
754.72	9048.69
755.05	9228.57
755.38	9275.69
755.72	9381.79
756.05	9436.93
756.38	9615.57
756.71	9689.91
757.04	9806.30
757.37	9881.66
757.71	10036.69
758.04	10089.90
758.37	10220.07
758.70	10265.94
759.03	10448.76
759.36	10572.49
759.70	10669.21
760.03	10739.83
760.36	10915.87
760.69	11069.31
761.02	11135.64
761.35	11174.96
761.68	11289.65
762.01	11359.36
762.35	11436.20
762.68	11559.92
763.01	11643.65
763.34	11737.09
763.67	11757.43
764.00	11858.90
764.33	11924.66
764.66	11941.61
764.99	11996.63
765.32	12080.13
765.65	12184.76
765.98	12353.23
766.31	12232.79
766.65	12244.54
766.98	12277.64
767.31	12344.20
767.64	12467.81
767.97	12309.39
768.30	12321.48
768.63	12385.55
768.96	12295.27
769.29	12345.10
769.62	12314.14
769.95	12371.88
770.28	12388.94
770.61	12246.01
770.94	12324.53
771.27	12375.27
771.60	12288.26
771.93	12296.17
772.26	12193.80
772.59	12136.86
772.92	12159.91
773.24	12136.97
773.57	12132.34
773.90	11982.06
774.23	12057.99
774.56	11898.33
774.89	11929.74
775.22	11785.79
775.55	11784.32
775.88	11625.91
776.21	11507.61
776.54	11451.34
776.87	11307.73
777.19	11295.64
777.52	11257.22
777.85	11083.44
778.18	10988.19
778.51	10877.34
778.84	10751.02
779.17	10739.38
779.50	10674.18
779.82	10542.77
780.15	10359.39
780.48	10220.30
780.81	10153.41
781.14	10102.45
781.47	9971.60
781.80	9791.95
782.12	9821.78
782.45	9639.41
782.78	9647.43
783.11	9424.50
783.44	9287.89
783.76	9263.49
784.09	9065.86
784.42	8977.50
784.75	8903.27
785.08	8734.01
785.40	8660.45
785.73	8590.28
786.06	8360.01
786.39	8306.34
786.71	8194.81
787.04	8142.72
787.37	7984.08
787.70	7851.21
788.02	7737.20
788.35	7569.97
788.68	7451.67
789.00	7351.90
789.33	7170.88
789.66	7101.73
789.99	6955.52
790.31	6801.63
790.64	6766.71
790.97	6590.34
791.29	6574.52
791.62	6406.16
791.95	6280.17
792.27	6173.17
792.60	6072.50
792.93	5986.96
793.25	5848.77
793.58	5803.58
793.91	5668.33
794.23	5527.09
794.56	5414.43
794.89	5315.23
795.21	5283.36
795.54	5131.84
795.87	5070.49
796.19	4956.93
796.52	4878.63
796.84	4773.09
797.17	4658.52
797.50	4656.49
797.82	4470.50
798.15	4415.03
798.47	4335.93
798.80	4227.46
799.12	4188.14
799.45	4035.49
799.78	3960.57
800.10	3893.68
800.43	3779.79
800.75	3691.88
801.08	3626.57
801.40	3529.51
801.73	3443.19
802.05	3350.19
802.38	3293.13
802.70	3222.40
803.03	3111.90
803.35	3077.55
803.68	2991.56
804.00	2919.92
804.33	2822.19
804.65	2738.80
804.98	2676.20
805.30	2592.36
805.63	2530.22
805.95	2476.55
806.28	2380.73
806.60	2288.98
806.93	2258.92
807.25	2190.90
807.58	2150.23
807.90	2069.10
808.22	2012.72
808.55	1964.36
808.87	1918.03
809.20	1841.99
809.52	1811.03
809.85	1734.30
810.17	1686.17
810.49	1633.52
810.82	1597.36
811.14	1574.87
811.47	1503.24
811.79	1459.85
812.11	1410.13
812.44	1370.81
812.76	1317.82
813.08	1263.58
813.41	1241.32
813.73	1187.09
814.05	1173.30
814.38	1112.51
814.70	1072.06
815.02	1034.44
815.35	1013.08
815.67	972.06
815.99	959.64
816.32	924.16
816.64	903.14
816.96	881.67
817.29	853.65
817.61	816.70
817.93	804.84
818.26	786.76
818.58	714.90
818.90	707.55
819.22	713.31
819.55	676.59
819.87	639.87
820.19	649.47
820.51	608.46
820.84	573.54
821.16	570.27
821.48	543.60
821.80	529.25
822.13	509.48
822.45	494.00
822.77	480.44
823.09	487.22
823.41	466.43
823.74	449.59
824.06	438.18
824.38	415.58
824.70	393.44
825.02	380.10
825.35	392.53
825.67	380.78
825.99	363.83
826.31	355.24
826.63	352.76
826.95	324.62
827.27	315.47
827.60	334.00
827.92	304.06
828.24	310.61
828.56	302.14
828.88	271.74
829.20	295.59
829.52	265.64
829.84	270.39
830.17	248.81
830.49	242.82
830.81	240.78
831.13	228.69
831.45	217.85
831.77	219.20
832.09	206.55
832.41	195.81
832.73	221.01
833.05	212.76
833.37	190.84
833.69	170.17
834.01	176.94
834.33	153.67
834.65	146.89
834.97	161.69
835.29	156.49
835.61	148.58
835.94	167.23
836.26	160.22
836.58	146.66
836.90	109.04
837.21	137.06
837.53	137.51
837.85	117.62
838.17	123.50
838.49	110.51
838.81	104.18
839.13	111.52
839.45	108.81
839.77	100.45
840.09	96.04
840.41	97.51
840.73	79.43
841.05	78.75
841.37	104.29
841.69	86.89
842.01	84.74
842.33	75.03
842.65	61.69
842.96	75.25
843.28	90.62
843.60	68.70
843.92	67.68
844.24	80.79
844.56	74.35
844.88	62.94
845.20	54.01
845.52	60.79
845.83	57.29
846.15	48.47
846.47	71.75
846.79	43.95
847.11	51.07
847.43	39.10
847.74	50.96
848.06	43.39
848.38	52.20
848.70	31.52
849.02	40.90
849.33	9.15
849.65	32.20
849.97	45.87
850.29	42.60
850.61	36.38
850.92	15.71
851.24	20.79
851.56	7.23
851.88	22.94
852.19	31.07
852.51	2.15
852.83	21.58
853.15	0.56
853.46	13.56
853.78	19.66
854.10	9.15
854.42	17.74
854.73	8.93
855.05	-6.33
855.37	7.57
855.68	21.81
856.00	1.81
856.32	5.76
856.63	-22.49
856.95	-2.71
857.27	4.97
857.59	-0.11
857.90	-0.56
858.22	-2.82
858.53	2.49
858.85	12.43
859.17	23.28
859.48	16.50
859.80	-4.29
860.12	-7.68
860.43	-6.55
860.75	2.49
861.07	14.46
861.38	-21.58
861.70	-12.09
862.01	-12.77
862.33	-20.11
862.65	-2.60
862.96	5.08
863.28	-14.12
863.59	-14.35
863.91	2.37
864.22	-13.67
864.54	-14.58
864.86	-5.20
865.17	-12.54
865.49	0.68
865.80	0.23
866.12	-30.62
866.43	-22.49
866.75	-17.40
867.06	-12.66
867.38	-6.89
867.69	-18.08
868.01	-4.41
868.32	-6.44
868.64	1.47
868.95	3.05
869.27	6.67
869.58	-6.67
869.90	-6.10
870.21	-14.01
870.53	-3.62
870.84	0.68
871.15	-4.52
871.47	-7.91
871.78	-1.24
872.10	5.99
872.41	4.75
872.73	-3.62
873.04	-27.00
873.36	-21.24
873.67	1.92
873.98	-11.30
874.30	6.33
874.61	-15.37
874.93	-18.98
875.24	-20.79
875.55	-12.09
875.87	0.68
876.18	-8.36
876.49	3.84
876.81	-14.80
877.12	-26.10
877.43	-9.72
877.75	-12.77
878.06	-6.21
878.37	-24.63
878.69	5.76
879.00	0.23
879.31	-16.04
879.63	-6.78
879.94	-10.51
880.25	-16.04
880.57	-9.60
880.88	-9.27
881.19	1.47
881.50	-10.73
881.82	-8.25
882.13	-20.23
882.44	-14.24
882.76	-18.64
883.07	-10.96
883.38	0.56
883.69	-5.76
884.01	-17.85
884.32	-15.03
884.63	-34.46
884.94	-8.36
885.25	-17.40
885.57	-0.56
885.88	-0.34
886.19	3.28
886.50	-4.97
886.81	-14.24
887.13	-5.20
887.44	-18.42
887.75	-0.68
888.06	-34.01
888.37	-19.21
888.69	-23.39
889.00	-29.04
889.31	-5.20
889.62	-17.63
889.93	-13.78
890.24	2.03
890.55	-13.33
890.87	-21.02
891.18	-3.84
891.49	-9.49
891.80	-13.33
892.11	-28.13
892.42	-11.19
892.73	-12.32
893.04	-7.46
893.35	-6.44
893.66	-21.02
893.98	-43.39
894.29	-35.71
894.60	-26.67
894.91	-1.24
895.22	-23.50
895.53	-10.40
895.84	-8.93
896.15	-13.11
896.46	-4.63
896.77	-14.69
897.08	-26.67
897.39	-19.10
897.70	-3.95
898.01	-14.58
898.32	-30.06
898.63	-16.27
898.94	-11.30
899.25	-12.66
899.56	-12.32
899.87	-3.39
900.18	9.94
900.49	-24.07
900.80	-17.63
901.11	-17.51
901.42	-15.93
901.73	5.99
902.04	-0.34
902.35	-9.04
902.66	-37.51
902.96	-6.10
903.27	-15.93
903.58	-34.69
903.89	-11.86
904.20	-7.91
904.51	-13.45
904.82	-38.19
905.13	-54.57
905.44	-27.57
905.75	-31.64
906.05	-21.47
906.36	0.45
906.67	-25.08
906.98	-14.35
907.29	-4.41
907.60	-11.41
907.91	-10.17
908.21	-7.01
908.52	-21.24
908.83	-18.30
909.14	-8.47
909.45	-26.33
909.75	-28.36
910.06	-5.20
910.37	-17.17
910.68	-9.83
910.99	-5.65
911.29	-23.95
911.60	-32.65
911.91	-26.21
912.22	-21.47
912.52	-12.20
912.83	-3.16
913.14	-23.16
913.45	-21.02
913.75	-24.07
914.06	-10.85
914.37	-18.19
914.68	-4.41
914.98	-23.73
915.29	-33.67
915.60	-7.12
915.91	-27.34
916.21	-15.48
916.52	-7.57
916.83	-17.63
917.13	-13.11
917.44	6.67
917.75	-15.25
918.05	-12.32
918.36	1.69
918.67	-11.53
918.97	-25.31
919.28	-10.17
919.59	-20.23
919.89	-23.62
920.20	-15.82
920.50	-24.63
920.81	-32.65
921.12	-27.00
921.42	-28.02
921.73	-12.88
922.03	-28.93
922.34	-22.37
922.65	-5.88
922.95	-6.78
923.26	-24.18
923.56	-23.62
923.87	-27.91
924.18	-17.85
924.48	-15.25
924.79	-19.21
925.09	3.62
925.40	-0.90
925.70	-28.25
926.01	-16.16
926.31	-18.42
926.62	-41.47
926.92	-16.38
927.23	-26.10
927.53	-7.57
927.84	-21.92
928.14	-21.69
928.45	-25.08
928.75	0.34
929.06	-3.73
929.36	-11.07
929.67	-26.55
929.97	-12.09
930.28	-5.76
930.58	-16.04
930.89	-20.11
931.19	-12.77
931.49	-28.47
931.80	-41.02
932.10	0.90
932.41	-16.38
932.71	-15.14
933.01	-16.50
933.32	-14.69
933.62	-14.35
933.93	-12.88
934.23	8.70
934.53	-11.41
934.84	-4.86
935.14	-14.58
935.45	-22.82
935.75	-16.16
936.05	-23.84
936.36	-8.25
936.66	2.49
936.96	-8.70
937.27	-17.40
937.57	-8.14
937.87	-3.62
938.18	-16.50
938.48	-18.30
938.78	-10.62
939.08	-38.53
939.39	-11.98
939.69	-4.97
939.99	-20.23
940.30	-23.16
940.60	-5.42
940.90	-21.13
941.20	-20.68
941.51	-19.21
941.81	-11.98
942.11	-23.84
942.41	-11.64
942.72	-22.03
943.02	-20.34
943.32	-8.47
943.62	-23.16
943.93	-19.66
944.23	-9.38
944.53	-26.78
944.83	-9.27
945.13	-8.25
945.44	-24.75
945.74	-8.47
946.04	-33.67
946.34	-10.40
946.64	-33.67
946.94	-15.14
947.25	-15.71
947.55	-21.69
947.85	-18.42
948.15	-11.64
948.45	-30.39
948.75	-32.99
949.05	-25.54
949.35	-11.98
949.66	-10.40
949.96	-4.97
950.26	-37.85
950.56	-9.38
950.86	-37.51
951.16	-29.15
951.46	-12.43
951.76	-8.70
952.06	-36.72
952.36	-12.54
952.66	-15.25
952.96	-18.76
953.26	-26.78
953.57	-10.62
953.87	-26.78
954.17	-18.30
954.47	-4.75
954.77	-16.72
955.07	2.82
955.37	-18.08
955.67	-12.09
955.97	-1.81
956.27	-21.47
956.57	-26.44
956.87	-26.89
957.17	-28.81
957.47	-16.95
957.77	-1.24
958.06	-25.99
958.36	-6.78
958.66	-4.29
958.96	-13.45
959.26	-30.85
959.56	-20.79
959.86	-18.42
960.16	-23.05
960.46	-30.06
960.76	-20.56
961.06	-31.64
961.36	-22.49
961.66	15.82
961.95	-0.56
962.25	-5.20
962.55	-12.32
962.85	-10.06
963.15	-17.29
963.45	-11.19
963.75	-17.85
964.05	-15.25
964.34	-1.69
964.64	-31.64
964.94	-12.66
965.24	-29.38
965.54	-7.01
965.83	-8.25
966.13	-16.27
966.43	-1.81
966.73	-0.23
967.03	-21.02
967.32	-13.90
967.62	-5.08
967.92	-24.07
968.22	-23.05
968.52	-15.14
968.81	-31.19
969.11	-12.77
969.41	-7.57
969.71	5.65
970.00	7.80
970.30	3.28
970.60	-15.03
970.90	-28.13
971.19	-2.37
971.49	-17.74
971.79	-32.65
972.08	-22.15
972.38	-23.73
972.68	-23.84
972.97	-2.82
973.27	-14.12
973.57	-33.33
973.87	-16.72
974.16	-24.75
974.46	-17.85
974.75	-15.93
975.05	-19.66
975.35	-24.29
975.64	-36.27
975.94	-7.46
976.24	-25.54
976.53	-21.36
976.83	-10.51
977.13	-22.03
977.42	-11.07
977.72	-2.71
978.01	-18.53
978.31	-18.30
978.60	-24.41
978.90	-26.33
979.20	-20.56
979.49	-27.91
979.79	-28.93
980.08	-22.03
980.38	-14.91
980.67	-17.40
980.97	-37.29
981.26	-22.49
981.56	-4.29
981.86	-0.56
982.15	-23.05
982.45	-18.53
982.74	-12.43
983.04	-17.85
983.33	-5.42
983.63	-6.67
983.92	-17.85
984.21	-29.72
984.51	-35.59
984.80	-2.60
985.10	-11.19
985.39	-23.28
985.69	-22.26
985.98	-27.12
986.28	-21.24
986.57	-16.38
986.87	1.47
987.16	-28.70
987.45	-10.62
987.75	-7.68
988.04	-1.58
988.34	-18.53
988.63	-27.12
988.92	-23.16
989.22	-14.46
989.51	-23.28
989.80	-9.04
990.10	-5.42
990.39	-20.45
990.69	-15.48
990.98	-28.36
991.27	-2.26
991.57	-7.23
991.86	-16.16
992.15	-16.50
992.45	-23.95
992.74	-19.55
993.03	-14.58
993.33	-20.68
993.62	-4.63
993.91	-15.14
994.20	-15.71
994.50	-30.28
994.79	-5.88
995.08	-28.13
995.37	-14.58
995.67	-18.30
995.96	-14.69
996.25	-27.23
996.54	-8.25
996.84	4.07
997.13	-20.00
997.42	-24.29
997.71	-27.00
998.01	-11.86
998.30	-24.97
998.59	-15.59
998.88	-15.82
999.17	-6.10
999.47	-14.80
999.76	-19.66
1000.05	-30.51
1000.34	-21.02
1000.63	-24.07
1000.92	-5.99
1001.22	-5.65
1001.51	-16.61
1001.80	-20.45
1002.09	-16.16
1002.38	-11.98
1002.67	-23.50
1002.96	-18.87
1003.26	-17.06
1003.55	-25.42
1003.84	-11.75
1004.13	-22.82
1004.42	-5.88
1004.71	-54.57
1005.00	-16.72
1005.29	-24.97
1005.58	-18.30
1005.87	-20.00
1006.16	-23.39
1006.45	-24.41
1006.74	-21.47
1007.04	-12.66
1007.33	-6.21
1007.62	-18.42
1007.91	-11.75
1008.20	-21.69
1008.49	-23.50
1008.78	-30.96
1009.07	-23.62
1009.36	-29.26
1009.65	-19.32
1009.94	-15.03
1010.23	-32.65
1010.52	-30.06
1010.81	-27.46
1011.10	1.36
1011.38	-25.99
1011.67	-23.62
1011.96	12.88
1012.25	-12.88
1012.54	-31.30
1012.83	-26.21
1013.12	-35.37
1013.41	-37.17
1013.70	-24.18
1013.99	-15.93
1014.28	2.82
1014.57	-18.76
1014.86	-25.20
1015.14	-13.33
1015.43	-18.30
1015.72	-12.20
1016.01	-20.11
1016.30	-8.25
1016.59	-22.94
1016.88	0.79
1017.16	-16.72
1017.45	-21.36
1017.74	-18.53
1018.03	-19.43
1018.32	-20.56
1018.61	-31.30
1018.89	-2.03
1019.18	-3.50
1019.47	-10.85
1019.76	-21.92
1020.05	-27.68
1020.33	-17.51
1020.62	-23.39
1020.91	-11.19
1021.20	-21.24
1021.48	-17.85
1021.77	-11.98
1022.06	-31.19
1022.35	-10.62
1022.63	-7.57
1022.92	-24.86
1023.21	-2.71
1023.50	-13.56
1023.78	-22.37
1024.07	1.24
1024.36	-18.64
1024.64	-17.63
1024.93	-31.41
1025.22	-38.42
1025.50	-25.20
1025.79	0.79
1026.08	-12.43
1026.36	-17.17
1026.65	-23.39
1026.94	-7.12
1027.22	-16.04
1027.51	-0.90
1027.80	-17.29
1028.08	-2.60
1028.37	-38.87
1028.66	-29.83
1028.94	-15.48
>>>>>End Processed Spectral Data<<<<<
