SpectraSuite Data File
++++++++++++++++++++++++++++++++++++
Date: Thu Jun 15 11:44:44 BST 2017
User: Eng0000912
Dark Spectrum Present: Yes
Reference Spectrum Present: No
Number of Sampled Component Spectra: 1
Spectrometers: USB2+H04851
Integration Time (usec): 100000 (USB2+H04851)
Spectra Averaged: 20 (USB2+H04851)
Boxcar Smoothing: 0 (USB2+H04851)
Correct for Electrical Dark: No (USB2+H04851)
Strobe/Lamp Enabled: No (USB2+H04851)
Correct for Detector Non-linearity: No (USB2+H04851)
Correct for Stray Light: No (USB2+H04851)
Number of Pixels in Processed Spectrum: 2048
>>>>>Begin Processed Spectral Data<<<<<
340.07	-5.76
340.45	-5.76
340.82	-5.76
341.20	-38.87
341.58	-30.51
341.96	-16.38
342.34	-26.44
342.72	-18.42
343.10	-31.30
343.48	-35.37
343.85	-30.85
344.23	-25.54
344.61	-13.45
344.99	-12.88
345.37	-15.71
345.75	-35.25
346.13	-47.57
346.50	-21.92
346.88	-30.28
347.26	-30.51
347.64	-29.83
348.02	-25.65
348.40	-35.82
348.77	-16.61
349.15	-24.41
349.53	-30.85
349.91	-26.78
350.29	-12.77
350.66	-30.85
351.04	-18.98
351.42	-16.38
351.80	-15.93
352.18	-25.99
352.55	-17.29
352.93	-13.22
353.31	-11.30
353.69	-15.14
354.07	-27.91
354.44	2.94
354.82	-21.47
355.20	-33.45
355.58	-3.62
355.95	-17.97
356.33	-25.88
356.71	-26.55
357.09	-30.51
357.46	-38.30
357.84	-28.81
358.22	-21.58
358.60	-31.52
358.97	-15.93
359.35	-12.32
359.73	-11.86
360.10	-27.23
360.48	-29.38
360.86	-27.23
361.24	-22.49
361.61	-11.07
361.99	-28.59
362.37	-21.69
362.74	-27.57
363.12	-15.71
363.50	-31.19
363.87	-17.17
364.25	-21.58
364.63	-47.00
365.01	-27.57
365.38	-29.04
365.76	-20.79
366.14	-18.53
366.51	-36.61
366.89	-25.31
367.27	-22.26
367.64	-6.55
368.02	-37.17
368.39	-26.10
368.77	-25.88
369.15	-37.51
369.52	-9.15
369.90	-32.32
370.28	-25.88
370.65	-20.23
371.03	-17.06
371.40	-33.90
371.78	-16.61
372.16	-18.98
372.53	-4.29
372.91	-8.36
373.28	-17.06
373.66	-34.46
374.04	-28.47
374.41	-20.68
374.79	-25.42
375.16	-37.97
375.54	-18.76
375.92	-16.95
376.29	-37.06
376.67	-34.58
377.04	-20.45
377.42	-30.51
377.79	-9.60
378.17	-18.87
378.55	-30.62
378.92	-12.99
379.30	-36.50
379.67	-42.71
380.05	0.68
380.42	-12.54
380.80	-14.69
381.17	-24.97
381.55	-33.11
381.92	-30.96
382.30	-37.63
382.67	-35.14
383.05	-16.16
383.42	-19.32
383.80	-25.76
384.17	-8.93
384.55	-31.19
384.92	-27.57
385.30	-24.52
385.67	-19.10
386.05	-25.08
386.42	-21.24
386.80	-12.88
387.17	-21.92
387.55	-26.67
387.92	-11.75
388.30	-28.59
388.67	-14.58
389.04	-40.68
389.42	-35.71
389.79	-18.64
390.17	-21.13
390.54	-23.84
390.92	-16.50
391.29	-30.51
391.67	-11.19
392.04	-10.17
392.41	-18.19
392.79	-39.66
393.16	-33.22
393.54	-23.39
393.91	-26.21
394.28	-18.76
394.66	-13.78
395.03	-28.47
395.41	-39.21
395.78	-30.73
396.15	-24.18
396.53	-29.38
396.90	-22.60
397.28	-17.51
397.65	-7.80
398.02	-15.37
398.40	-17.85
398.77	-18.64
399.14	-28.81
399.52	-36.84
399.89	-22.82
400.26	-29.72
400.64	-13.56
401.01	-11.41
401.38	-13.45
401.76	-36.38
402.13	-17.97
402.50	1.24
402.88	-18.98
403.25	-27.46
403.62	-19.55
404.00	-21.24
404.37	-29.26
404.74	-34.12
405.12	-32.09
405.49	-29.94
405.86	-2.37
406.23	-35.37
406.61	-11.41
406.98	-34.58
407.35	-28.36
407.73	-42.03
408.10	-5.42
408.47	-28.70
408.84	-14.58
409.22	-24.86
409.59	-22.15
409.96	-36.27
410.33	-29.26
410.71	-19.89
411.08	-22.15
411.45	-2.37
411.82	-24.52
412.20	-23.95
412.57	-18.87
412.94	-28.47
413.31	-39.43
413.68	-29.60
414.06	-22.03
414.43	-38.42
414.80	-20.68
415.17	-16.16
415.55	-21.02
415.92	-26.21
416.29	-14.46
416.66	-23.95
417.03	-21.36
417.40	-16.61
417.78	-21.02
418.15	-17.85
418.52	-27.46
418.89	-8.81
419.26	-3.62
419.63	-31.64
420.01	-19.43
420.38	-28.93
420.75	-33.45
421.12	-19.21
421.49	-12.66
421.86	-21.81
422.23	-21.02
422.61	-31.30
422.98	-27.00
423.35	-23.62
423.72	-13.22
424.09	-36.04
424.46	-5.08
424.83	-44.97
425.20	-19.21
425.58	-15.25
425.95	-27.12
426.32	-32.54
426.69	-25.42
427.06	-25.99
427.43	-21.02
427.80	-7.80
428.17	-22.03
428.54	-15.48
428.91	-39.66
429.28	-15.71
429.65	-14.01
430.02	-17.40
430.40	-21.81
430.77	-25.65
431.14	-32.20
431.51	-15.82
431.88	-5.31
432.25	-18.64
432.62	-19.43
432.99	-21.13
433.36	-32.43
433.73	-35.71
434.10	-23.50
434.47	-31.41
434.84	-8.93
435.21	-20.00
435.58	-13.67
435.95	-8.81
436.32	-20.34
436.69	-48.81
437.06	-17.51
437.43	-26.55
437.80	-16.38
438.17	-21.69
438.54	-21.02
438.91	0.56
439.28	1.92
439.65	-24.41
440.02	-20.68
440.39	-21.24
440.76	-25.20
441.13	-24.97
441.49	-22.15
441.86	-30.62
442.23	-19.89
442.60	-24.07
442.97	-21.92
443.34	-18.53
443.71	-25.99
444.08	-32.20
444.45	-7.80
444.82	-36.04
445.19	-20.11
445.56	-37.40
445.93	-10.51
446.29	-17.63
446.66	-29.94
447.03	-31.07
447.40	-15.37
447.77	-14.80
448.14	-28.70
448.51	-25.31
448.88	-6.55
449.24	-11.41
449.61	-34.69
449.98	-24.29
450.35	-22.60
450.72	-23.39
451.09	-12.09
451.46	-13.11
451.82	-17.17
452.19	-29.26
452.56	-28.81
452.93	-21.47
453.30	-28.93
453.67	-10.40
454.03	-42.82
454.40	-34.69
454.77	-12.09
455.14	-36.38
455.51	-23.28
455.87	-22.03
456.24	-10.62
456.61	-20.34
456.98	-19.66
457.35	-27.34
457.71	-21.58
458.08	-39.77
458.45	-12.54
458.82	1.13
459.19	-33.90
459.55	-22.26
459.92	-18.87
460.29	-11.64
460.66	-29.72
461.02	-13.78
461.39	-14.58
461.76	-12.66
462.13	-24.75
462.49	-9.83
462.86	-23.39
463.23	-15.03
463.59	-21.02
463.96	-26.89
464.33	-12.66
464.70	-7.12
465.06	-12.20
465.43	-16.38
465.80	-9.27
466.16	-28.25
466.53	-27.57
466.90	-9.72
467.26	-36.50
467.63	-31.75
468.00	-30.28
468.36	-25.08
468.73	-17.85
469.10	-27.46
469.46	-17.97
469.83	-25.99
470.20	-26.55
470.56	-37.85
470.93	-26.21
471.30	-25.54
471.66	-14.12
472.03	0.68
472.40	-6.78
472.76	-8.59
473.13	-18.76
473.50	-31.86
473.86	-17.51
474.23	-10.40
474.59	-35.37
474.96	-40.00
475.33	-12.99
475.69	-16.72
476.06	-49.38
476.42	-10.28
476.79	-25.08
477.16	-17.97
477.52	-13.22
477.89	-36.16
478.25	-20.34
478.62	-27.80
478.98	-16.84
479.35	-15.59
479.72	-29.15
480.08	-17.17
480.45	-24.18
480.81	-20.34
481.18	-30.62
481.54	-30.96
481.91	-20.56
482.27	-25.54
482.64	-37.17
483.00	-32.65
483.37	-21.58
483.73	-20.23
484.10	-21.58
484.46	-33.45
484.83	-9.27
485.19	-27.57
485.56	-25.65
485.92	-10.06
486.29	-26.44
486.65	-21.36
487.02	-19.55
487.38	-10.51
487.75	-4.63
488.11	-12.43
488.48	-24.86
488.84	-22.37
489.21	-8.93
489.57	-39.77
489.94	-27.23
490.30	-9.83
490.66	-12.66
491.03	-15.71
491.39	-8.93
491.76	-28.47
492.12	-28.70
492.49	-21.58
492.85	-25.65
493.21	-28.02
493.58	-17.40
493.94	-6.44
494.31	-10.40
494.67	-37.17
495.03	-42.26
495.40	-14.24
495.76	-38.98
496.13	-12.88
496.49	-30.28
496.85	-20.90
497.22	-26.89
497.58	-11.98
497.94	-20.34
498.31	-1.81
498.67	-44.52
499.04	-13.56
499.40	-17.85
499.76	-15.37
500.13	-37.74
500.49	-29.04
500.85	-42.37
501.22	-18.64
501.58	-15.14
501.94	-13.56
502.31	-6.21
502.67	-20.56
503.03	-29.04
503.40	-28.47
503.76	-14.12
504.12	-5.65
504.48	-23.39
504.85	-27.34
505.21	-29.49
505.57	-29.04
505.94	-12.43
506.30	-15.93
506.66	-9.04
507.02	-19.55
507.39	-32.65
507.75	-29.26
508.11	-40.68
508.47	-17.40
508.84	-14.35
509.20	-2.15
509.56	-16.50
509.92	-5.65
510.29	-31.07
510.65	-21.92
511.01	-27.57
511.37	-47.34
511.74	-14.58
512.10	-24.41
512.46	-13.67
512.82	-17.97
513.18	-29.72
513.55	-8.36
513.91	-11.98
514.27	-28.36
514.63	-16.61
514.99	-22.37
515.35	-17.40
515.72	-30.28
516.08	-31.75
516.44	-38.19
516.80	-24.29
517.16	-30.06
517.52	-19.66
517.89	-21.92
518.25	-34.91
518.61	-28.02
518.97	-18.87
519.33	-18.76
519.69	-4.29
520.05	-30.62
520.42	-45.42
520.78	-16.84
521.14	-24.18
521.50	-20.45
521.86	-35.48
522.22	-16.27
522.58	-12.54
522.94	-35.71
523.30	-11.53
523.67	3.73
524.03	-19.77
524.39	-29.15
524.75	-38.87
525.11	-20.79
525.47	-7.46
525.83	-15.71
526.19	-35.14
526.55	-7.57
526.91	0.34
527.27	-1.13
527.63	-19.55
527.99	-15.37
528.35	-25.88
528.71	-13.78
529.07	-15.14
529.43	-0.11
529.79	-40.68
530.15	-12.66
530.51	-20.79
530.87	-8.93
531.23	-17.85
531.59	-21.81
531.95	-12.77
532.31	-44.07
532.67	-39.77
533.03	-34.01
533.39	-17.97
533.75	-11.41
534.11	-24.18
534.47	-16.61
534.83	-18.53
535.19	7.68
535.55	-22.49
535.91	-33.45
536.27	-21.58
536.63	-31.64
536.99	-14.12
537.35	-21.58
537.71	-19.10
538.07	-18.30
538.43	-29.94
538.79	-27.80
539.15	-13.67
539.51	-26.44
539.86	-13.67
540.22	-28.70
540.58	-41.81
540.94	-13.45
541.30	-14.35
541.66	-25.31
542.02	-21.47
542.38	-15.93
542.74	-15.03
543.09	-24.97
543.45	-33.78
543.81	-29.60
544.17	-10.51
544.53	-35.93
544.89	-28.93
545.25	-14.69
545.60	-15.25
545.96	-42.48
546.32	-19.43
546.68	-2.94
547.04	-18.30
547.40	-23.73
547.75	-16.27
548.11	-33.56
548.47	-14.01
548.83	-20.23
549.19	-37.29
549.55	-29.15
549.90	-30.28
550.26	-12.32
550.62	-4.75
550.98	-26.10
551.34	-29.15
551.69	-15.82
552.05	-19.43
552.41	-38.30
552.77	-40.90
553.12	-35.48
553.48	-14.01
553.84	-16.95
554.20	-20.79
554.55	-18.98
554.91	2.03
555.27	-29.83
555.63	-21.02
555.98	-14.46
556.34	-11.98
556.70	-9.72
557.05	-2.03
557.41	-15.37
557.77	-24.75
558.13	-16.04
558.48	-16.50
558.84	-15.71
559.20	-12.54
559.55	-29.04
559.91	-22.26
560.27	-25.31
560.62	-20.79
560.98	-13.56
561.34	-6.89
561.69	-15.03
562.05	-27.68
562.41	-10.96
562.76	-22.60
563.12	-8.36
563.48	-15.25
563.83	-22.71
564.19	-27.12
564.55	-24.52
564.90	-13.67
565.26	-22.94
565.62	-36.95
565.97	-14.01
566.33	-13.90
566.68	-2.37
567.04	-18.53
567.40	1.58
567.75	-27.23
568.11	-19.66
568.46	-16.38
568.82	0.79
569.18	-13.33
569.53	-8.14
569.89	-6.44
570.24	3.50
570.60	-10.51
570.95	-9.60
571.31	9.27
571.66	1.47
572.02	6.10
572.38	28.36
572.73	49.60
573.09	19.21
573.44	49.15
573.80	38.87
574.15	25.42
574.51	42.82
574.86	50.39
575.22	47.80
575.57	36.16
575.93	40.34
576.28	37.06
576.64	25.54
576.99	60.56
577.35	33.78
577.70	29.04
578.06	36.50
578.41	31.07
578.77	16.16
579.12	-11.98
579.48	6.44
579.83	16.38
580.18	15.03
580.54	-0.56
580.89	13.56
581.25	-5.20
581.60	-0.34
581.96	-25.88
582.31	-37.17
582.67	-11.30
583.02	-9.15
583.37	-20.90
583.73	-24.41
584.08	-12.66
584.44	-16.16
584.79	-25.99
585.14	-12.43
585.50	-33.33
585.85	-37.85
586.21	-17.74
586.56	-5.08
586.91	-35.59
587.27	-6.44
587.62	-10.62
587.97	-12.20
588.33	-18.98
588.68	-1.24
589.03	-16.27
589.39	-22.49
589.74	-11.19
590.09	1.13
590.45	-6.21
590.80	-9.04
591.15	-14.35
591.51	-18.30
591.86	-3.16
592.21	-16.38
592.57	-13.45
592.92	-17.17
593.27	-12.20
593.63	-33.78
593.98	-16.72
594.33	-27.46
594.69	-24.41
595.04	-0.56
595.39	-6.21
595.74	-10.96
596.10	-2.03
596.45	-17.97
596.80	-31.30
597.15	-20.11
597.51	-11.07
597.86	-18.76
598.21	-24.75
598.56	-5.88
598.92	-16.61
599.27	-21.81
599.62	-7.46
599.97	-20.00
600.32	7.80
600.68	-13.22
601.03	10.62
601.38	-33.11
601.73	-11.64
602.09	-19.89
602.44	-16.95
602.79	-20.56
603.14	-8.25
603.49	-9.38
603.84	-4.41
604.20	-31.52
604.55	-6.44
604.90	0.00
605.25	-9.15
605.60	-17.97
605.95	-27.91
606.31	-30.85
606.66	-11.07
607.01	3.50
607.36	-22.94
607.71	-15.14
608.06	-12.54
608.41	-31.07
608.76	-23.95
609.12	-30.28
609.47	-22.94
609.82	-20.68
610.17	-2.37
610.52	-15.25
610.87	6.55
611.22	-3.73
611.57	-7.80
611.92	-24.75
612.27	-3.16
612.62	-21.24
612.98	-10.85
613.33	-41.13
613.68	-4.29
614.03	2.82
614.38	-17.17
614.73	-30.17
615.08	-4.97
615.43	-20.56
615.78	-19.10
616.13	-26.21
616.48	-14.01
616.83	-3.28
617.18	-27.34
617.53	-23.95
617.88	-14.58
618.23	-23.84
618.58	3.05
618.93	-20.00
619.28	-1.47
619.63	-34.58
619.98	-8.93
620.33	-14.91
620.68	-11.86
621.03	-22.94
621.38	-19.32
621.73	-22.15
622.08	-1.02
622.43	0.45
622.78	-11.41
623.13	-27.91
623.48	-0.68
623.82	-14.24
624.17	-19.55
624.52	-19.66
624.87	-11.41
625.22	-34.58
625.57	-17.97
625.92	-19.77
626.27	-38.08
626.62	-12.20
626.97	-8.81
627.32	-19.89
627.66	-20.68
628.01	-15.25
628.36	-8.70
628.71	-28.13
629.06	-14.01
629.41	-5.88
629.76	-20.68
630.11	-17.06
630.45	-26.21
630.80	-21.36
631.15	-0.45
631.50	-27.80
631.85	-21.02
632.20	-20.11
632.54	-15.03
632.89	-23.84
633.24	-14.01
633.59	-17.17
633.94	-4.07
634.29	-26.67
634.63	-12.32
634.98	-5.65
635.33	-38.98
635.68	-6.10
636.02	-21.58
636.37	-10.06
636.72	0.68
637.07	-27.57
637.42	-21.81
637.76	-25.42
638.11	-21.36
638.46	-15.48
638.81	-8.81
639.15	-24.97
639.50	-24.75
639.85	-14.69
640.20	-9.38
640.54	-22.71
640.89	-9.38
641.24	-9.38
641.58	-18.08
641.93	-18.76
642.28	-1.92
642.63	-12.54
642.97	-21.02
643.32	1.13
643.67	-3.95
644.01	-28.93
644.36	-23.05
644.71	-28.13
645.05	-6.33
645.40	-3.16
645.75	-36.72
646.09	-16.38
646.44	3.73
646.79	-19.55
647.13	-5.88
647.48	-10.96
647.83	-11.07
648.17	-8.70
648.52	-18.76
648.86	-29.83
649.21	-20.00
649.56	-9.60
649.90	-11.19
650.25	-20.45
650.60	-16.95
650.94	-7.46
651.29	-11.98
651.63	3.05
651.98	-4.07
652.33	-10.40
652.67	-18.19
653.02	-11.98
653.36	-11.53
653.71	-3.62
654.05	-19.10
654.40	-9.94
654.74	0.45
655.09	-3.05
655.44	-5.54
655.78	-14.12
656.13	-9.83
656.47	-14.80
656.82	-11.86
657.16	-4.86
657.51	-10.73
657.85	-12.99
658.20	-15.59
658.54	-16.04
658.89	-2.37
659.23	3.05
659.58	9.94
659.92	-8.81
660.27	-29.49
660.61	-15.59
660.96	-14.58
661.30	1.69
661.65	-7.12
661.99	-2.82
662.33	3.84
662.68	5.42
663.02	5.08
663.37	13.78
663.71	10.17
664.06	21.02
664.40	17.17
664.75	11.75
665.09	-3.62
665.43	25.88
665.78	13.90
666.12	28.13
666.47	8.36
666.81	2.15
667.15	22.15
667.50	23.39
667.84	30.06
668.19	18.98
668.53	23.28
668.87	15.03
669.22	29.72
669.56	24.75
669.90	17.63
670.25	37.63
670.59	47.57
670.93	34.58
671.28	34.58
671.62	40.68
671.96	21.24
672.31	54.24
672.65	41.24
672.99	45.65
673.34	24.18
673.68	28.02
674.02	44.41
674.37	50.06
674.71	48.25
675.05	55.82
675.40	46.55
675.74	61.92
676.08	65.42
676.42	80.45
676.77	64.63
677.11	68.47
677.45	74.01
677.79	71.75
678.14	86.44
678.48	84.74
678.82	81.81
679.16	82.82
679.51	91.86
679.85	79.77
680.19	100.34
680.53	81.47
680.88	93.67
681.22	107.68
681.56	103.73
681.90	108.36
682.24	102.26
682.59	115.70
682.93	126.55
683.27	128.25
683.61	136.04
683.95	120.90
684.29	113.56
684.64	137.40
684.98	149.71
685.32	134.80
685.66	140.56
686.00	162.59
686.34	142.82
686.69	163.72
687.03	154.23
687.37	160.90
687.71	174.80
688.05	177.06
688.39	180.56
688.73	196.94
689.07	171.18
689.41	182.93
689.76	188.92
690.10	186.66
690.44	211.41
690.78	218.64
691.12	221.01
691.46	226.21
691.80	238.30
692.14	243.50
692.48	251.41
692.82	257.62
693.16	277.73
693.50	270.73
693.84	287.00
694.18	301.46
694.53	296.83
694.87	317.84
695.21	325.64
695.55	314.46
695.89	312.65
696.23	354.57
696.57	356.71
696.91	358.52
697.25	369.71
697.59	379.54
697.93	388.13
698.27	401.57
698.61	420.55
698.95	416.94
699.29	423.38
699.63	450.27
699.97	446.65
700.30	463.38
700.64	491.17
700.98	489.93
701.32	499.53
701.66	529.48
702.00	534.68
702.34	534.56
702.68	543.60
703.02	593.43
703.36	609.48
703.70	623.71
704.04	626.88
704.38	655.80
704.72	671.51
705.05	684.28
705.39	708.12
705.73	718.74
706.07	742.24
706.41	748.00
706.75	776.82
707.09	798.85
707.43	800.66
707.77	816.02
708.10	832.07
708.44	849.81
708.78	875.23
709.12	926.42
709.46	918.28
709.80	946.64
710.13	1001.44
710.47	1013.98
710.81	1023.93
711.15	1028.90
711.49	1079.41
711.82	1108.67
712.16	1116.81
712.50	1150.03
712.84	1187.88
713.18	1199.63
713.51	1245.84
713.85	1275.67
714.19	1290.70
714.53	1305.16
714.87	1350.81
715.20	1393.41
715.54	1395.44
715.88	1456.68
716.22	1473.18
716.55	1520.07
716.89	1535.10
717.23	1603.91
717.57	1580.75
717.90	1650.80
718.24	1684.70
718.58	1738.71
718.91	1758.37
719.25	1818.14
719.59	1850.23
719.93	1910.68
720.26	1939.38
720.60	1982.66
720.94	2038.03
721.27	2100.06
721.61	2150.79
721.95	2180.17
722.28	2240.96
722.62	2312.82
722.96	2369.43
723.29	2408.64
723.63	2440.27
723.97	2524.11
724.30	2588.75
724.64	2648.86
724.97	2710.78
725.31	2788.85
725.65	2849.08
725.98	2934.95
726.32	2979.81
726.66	3080.15
726.99	3144.78
727.33	3199.35
727.66	3296.64
728.00	3410.76
728.33	3498.44
728.67	3570.75
729.01	3634.93
729.34	3720.24
729.68	3826.00
730.01	3884.87
730.35	4010.85
730.68	4108.71
731.02	4202.26
731.36	4282.60
731.69	4428.81
732.03	4531.75
732.36	4627.34
732.70	4704.40
733.03	4840.66
733.37	4914.56
733.70	5035.23
734.04	5161.11
734.37	5286.08
734.71	5385.40
735.04	5558.05
735.38	5647.65
735.71	5816.57
736.05	5970.01
736.38	6043.12
736.72	6139.39
737.05	6275.54
737.38	6405.26
737.72	6530.00
738.05	6715.64
738.39	6844.45
738.72	7022.64
739.06	7085.58
739.39	7244.78
739.73	7368.62
740.06	7515.28
740.39	7682.74
740.73	7892.56
741.06	8017.64
741.40	8154.47
741.73	8294.58
742.06	8451.87
742.40	8663.61
742.73	8774.80
743.07	8961.69
743.40	9149.82
743.73	9284.50
744.07	9427.89
744.40	9611.84
744.73	9876.46
745.07	9947.31
745.40	10124.71
745.73	10348.20
746.07	10525.37
746.40	10658.02
746.73	10819.94
747.07	11021.74
747.40	11146.83
747.73	11437.78
748.07	11523.20
748.40	11769.97
748.73	11947.26
749.07	12256.51
749.40	12351.54
749.73	12594.81
750.06	12678.31
750.40	12936.27
750.73	13123.27
751.06	13325.64
751.40	13590.83
751.73	13724.38
752.06	13954.55
752.39	14156.69
752.73	14401.88
753.06	14626.62
753.39	14824.81
753.72	15008.76
754.05	15129.55
754.39	15373.04
754.72	15582.98
755.05	15905.23
755.38	16025.23
755.72	16194.94
756.05	16309.18
756.38	16618.43
756.71	16848.14
757.04	17049.27
757.37	17157.40
757.71	17362.14
758.04	17550.39
758.37	17723.49
758.70	17886.31
759.03	18161.22
759.36	18370.82
759.70	18647.53
760.03	18785.61
760.36	18996.90
760.69	19227.63
761.02	19414.52
761.35	19468.75
761.68	19753.15
762.01	19863.43
762.35	20063.54
762.68	20231.90
763.01	20518.90
763.34	20579.12
763.67	20689.74
764.00	20761.49
764.33	20948.04
764.66	20996.62
764.99	21147.24
765.32	21248.48
765.65	21519.89
765.98	21747.90
766.31	21541.92
766.65	21585.87
766.98	21654.12
767.31	21751.07
767.64	21948.58
767.97	21801.91
768.30	21751.41
768.63	21931.29
768.96	21771.18
769.29	21851.74
769.62	21743.27
769.95	21834.91
770.28	21828.69
770.61	21672.65
770.94	21788.24
771.27	21812.08
771.60	21737.06
771.93	21756.60
772.26	21603.05
772.59	21393.79
772.92	21441.24
773.24	21477.97
773.57	21452.32
773.90	21236.28
774.23	21202.61
774.56	21090.63
774.89	21034.02
775.22	20744.88
775.55	20866.12
775.88	20495.05
776.21	20345.00
776.54	20222.52
776.87	20010.66
777.19	19873.49
777.52	19824.22
777.85	19457.57
778.18	19284.01
778.51	19026.62
778.84	19026.62
779.17	18866.62
779.50	18703.01
779.82	18462.79
780.15	18184.49
780.48	17940.32
780.81	17788.35
781.14	17740.55
781.47	17506.55
781.80	17077.18
782.12	17090.74
782.45	16743.40
782.78	16763.74
783.11	16473.69
783.44	16168.61
783.76	16061.72
784.09	15687.38
784.42	15599.93
784.75	15399.71
785.08	15183.56
785.40	14925.26
785.73	14765.49
786.06	14373.63
786.39	14317.48
786.71	14068.90
787.04	13981.67
787.37	13660.43
787.70	13351.40
788.02	13161.46
788.35	12915.03
788.68	12640.91
789.00	12538.65
789.33	12150.87
789.66	12042.40
789.99	11781.72
790.31	11555.18
790.64	11444.33
790.97	11171.57
791.29	11047.51
791.62	10791.35
791.95	10561.76
792.27	10368.43
792.60	10238.26
792.93	10026.06
793.25	9783.58
793.58	9690.48
793.91	9499.07
794.23	9227.10
794.56	9055.02
794.89	8891.18
795.21	8814.91
795.54	8560.68
795.87	8474.69
796.19	8222.61
796.52	8111.65
796.84	7945.21
797.17	7736.86
797.50	7644.32
797.82	7415.85
798.15	7308.85
798.47	7129.64
798.80	6950.44
799.12	6907.84
799.45	6685.81
799.78	6532.48
800.10	6378.59
800.43	6232.04
800.75	6095.55
801.08	5943.46
801.40	5803.58
801.73	5642.68
802.05	5507.20
802.38	5347.99
802.70	5238.73
803.03	5100.32
803.35	4988.12
803.68	4894.00
804.00	4762.13
804.33	4656.15
804.65	4506.55
804.98	4393.22
805.30	4269.15
805.63	4141.70
805.95	4020.91
806.28	3892.33
806.60	3745.21
806.93	3688.94
807.25	3594.71
807.58	3506.01
807.90	3355.84
808.22	3234.60
808.55	3188.73
808.87	3138.79
809.20	3014.05
809.52	2939.13
809.85	2819.70
810.17	2724.22
810.49	2638.01
810.82	2579.71
811.14	2488.07
811.47	2417.56
811.79	2353.16
812.11	2249.09
812.44	2175.42
812.76	2097.35
813.08	2046.84
813.41	1990.23
813.73	1926.62
814.05	1865.83
814.38	1795.43
814.70	1731.82
815.02	1673.63
815.35	1647.53
815.67	1571.94
815.99	1539.28
816.32	1484.82
816.64	1451.26
816.96	1408.89
817.29	1350.36
817.61	1329.68
817.93	1286.07
818.26	1235.67
818.58	1163.70
818.90	1162.00
819.22	1120.20
819.55	1085.17
819.87	1050.48
820.19	1040.65
820.51	964.83
820.84	947.43
821.16	929.35
821.48	883.48
821.80	864.38
822.13	820.09
822.45	817.27
822.77	785.18
823.09	767.44
823.41	726.53
823.74	717.38
824.06	686.76
824.38	692.64
824.70	647.33
825.02	634.33
825.35	633.20
825.67	610.38
825.99	571.74
826.31	567.33
826.63	541.68
826.95	532.19
827.27	520.78
827.60	513.09
827.92	499.87
828.24	489.59
828.56	472.53
828.88	441.57
829.20	434.11
829.52	435.47
829.84	424.85
830.17	408.46
830.49	383.15
830.81	381.80
831.13	356.71
831.45	369.59
831.77	349.14
832.09	340.67
832.41	324.51
832.73	322.25
833.05	337.28
833.37	327.79
833.69	301.12
834.01	283.72
834.33	277.73
834.65	256.26
834.97	245.98
835.29	249.37
835.61	257.62
835.94	273.33
836.26	230.05
836.58	238.07
836.90	198.41
837.21	221.92
837.53	232.54
837.85	197.40
838.17	210.16
838.49	187.45
838.81	181.01
839.13	178.30
839.45	190.16
839.77	176.27
840.09	164.63
840.41	158.19
840.73	135.36
841.05	149.26
841.37	161.01
841.69	143.61
842.01	126.78
842.33	134.57
842.65	127.68
842.96	102.60
843.28	112.54
843.60	97.17
843.92	108.92
844.24	112.09
844.56	118.41
844.88	94.12
845.20	97.17
845.52	93.78
845.83	79.43
846.15	80.68
846.47	80.34
846.79	60.34
847.11	64.86
847.43	69.60
847.74	55.37
848.06	39.77
848.38	77.74
848.70	60.45
849.02	74.69
849.33	27.00
849.65	61.58
849.97	56.27
850.29	44.97
850.61	57.40
850.92	37.97
851.24	36.38
851.56	31.64
851.88	26.67
852.19	32.99
852.51	15.93
852.83	43.28
853.15	17.40
853.46	35.14
853.78	37.97
854.10	12.66
854.42	34.80
854.73	21.58
855.05	17.97
855.37	27.57
855.68	33.67
856.00	16.04
856.32	-0.11
856.63	-5.99
856.95	-3.05
857.27	17.74
857.59	10.96
857.90	4.75
858.22	3.73
858.53	23.05
858.85	14.91
859.17	18.19
859.48	7.01
859.80	-3.84
860.12	-13.67
860.43	2.15
860.75	3.73
861.07	8.93
861.38	-23.28
861.70	-6.89
862.01	-19.66
862.33	-16.38
862.65	-15.82
862.96	2.94
863.28	-16.04
863.59	-3.50
863.91	2.15
864.22	-7.34
864.54	-11.64
864.86	11.98
865.17	-0.23
865.49	-2.03
865.80	-1.36
866.12	-28.02
866.43	-1.24
866.75	-18.53
867.06	-17.97
867.38	-13.67
867.69	-6.55
868.01	-15.93
868.32	-9.15
868.64	-5.42
868.95	-13.11
869.27	-6.67
869.58	-6.89
869.90	-17.97
870.21	-20.23
870.53	-14.35
870.84	-9.49
871.15	-11.86
871.47	-7.34
871.78	-7.34
872.10	-9.15
872.41	-15.71
872.73	-6.55
873.04	-9.15
873.36	-23.39
873.67	-23.95
873.98	-16.72
874.30	5.54
874.61	-26.10
874.93	-28.25
875.24	-10.85
875.55	-13.45
875.87	-17.97
876.18	-9.27
876.49	-17.51
876.81	-17.63
877.12	-24.63
877.43	-31.86
877.75	-23.16
878.06	-13.33
878.37	-26.33
878.69	-11.98
879.00	-7.01
879.31	-5.88
879.63	-1.13
879.94	-10.17
880.25	-27.12
880.57	-12.32
880.88	-31.64
881.19	-10.96
881.50	-11.75
881.82	-33.56
882.13	-23.39
882.44	-21.13
882.76	-34.91
883.07	-10.62
883.38	-23.16
883.69	-23.62
884.01	-33.22
884.32	-12.54
884.63	-44.29
884.94	-35.48
885.25	-27.46
885.57	-7.46
885.88	9.72
886.19	-11.53
886.50	-16.95
886.81	-22.82
887.13	-14.46
887.44	-8.81
887.75	-0.23
888.06	-14.35
888.37	-22.37
888.69	-29.60
889.00	-24.75
889.31	-7.80
889.62	-17.06
889.93	-8.70
890.24	-4.97
890.55	-24.52
890.87	-20.11
891.18	-8.59
891.49	-4.75
891.80	-28.59
892.11	-32.20
892.42	-11.86
892.73	-23.50
893.04	-10.62
893.35	-21.13
893.66	-15.48
893.98	-28.25
894.29	-37.74
894.60	-30.06
894.91	-20.23
895.22	-31.41
895.53	-26.21
895.84	-17.06
896.15	-14.46
896.46	-17.06
896.77	-29.26
897.08	-38.08
897.39	-26.89
897.70	-9.94
898.01	-12.32
898.32	-38.53
898.63	-29.94
898.94	-9.83
899.25	-18.64
899.56	-13.90
899.87	-14.69
900.18	-17.40
900.49	-22.03
900.80	-18.98
901.11	-21.24
901.42	-32.43
901.73	3.39
902.04	-13.90
902.35	-19.66
902.66	-33.56
902.96	-18.42
903.27	-18.08
903.58	-20.00
903.89	-17.51
904.20	-17.63
904.51	-24.41
904.82	-24.75
905.13	-48.02
905.44	-24.52
905.75	-25.99
906.05	-16.61
906.36	-9.49
906.67	-18.98
906.98	-24.97
907.29	-21.92
907.60	-26.89
907.91	-15.71
908.21	-15.82
908.52	-33.22
908.83	-21.13
909.14	-19.55
909.45	-25.88
909.75	-42.60
910.06	-15.37
910.37	-8.70
910.68	-13.33
910.99	-10.85
911.29	-21.36
911.60	-39.21
911.91	-30.17
912.22	-12.66
912.52	-22.15
912.83	-5.99
913.14	-20.68
913.45	-11.75
913.75	-25.54
914.06	-24.75
914.37	-17.85
914.68	-9.72
914.98	-32.77
915.29	-28.93
915.60	-18.98
915.91	-10.85
916.21	-8.93
916.52	-21.69
916.83	-26.89
917.13	-26.21
917.44	-22.71
917.75	-17.97
918.05	-20.56
918.36	-7.46
918.67	-21.13
918.97	-14.24
919.28	-20.11
919.59	-33.22
919.89	-21.47
920.20	-21.13
920.50	-35.14
920.81	-38.42
921.12	-27.23
921.42	-21.36
921.73	-28.36
922.03	-43.73
922.34	-27.46
922.65	-18.19
922.95	-29.49
923.26	-29.04
923.56	-33.56
923.87	-44.86
924.18	-39.55
924.48	-9.27
924.79	-21.47
925.09	-16.38
925.40	-8.81
925.70	-34.46
926.01	-18.30
926.31	-18.19
926.62	-37.40
926.92	-31.98
927.23	-32.54
927.53	-25.99
927.84	-23.16
928.14	-24.63
928.45	-20.68
928.75	-11.19
929.06	-19.89
929.36	-12.88
929.67	-33.11
929.97	-14.35
930.28	-7.68
930.58	-18.08
930.89	-19.55
931.19	-39.89
931.49	-17.97
931.80	-35.59
932.10	-15.71
932.41	-32.43
932.71	-33.22
933.01	-19.10
933.32	-16.16
933.62	-20.34
933.93	-16.27
934.23	-18.30
934.53	-19.10
934.84	11.98
935.14	-34.12
935.45	-44.29
935.75	-25.20
936.05	-20.90
936.36	-24.41
936.66	-5.88
936.96	-33.33
937.27	-23.16
937.57	-14.69
937.87	-16.72
938.18	-24.52
938.48	-19.66
938.78	-29.60
939.08	-54.46
939.39	-21.58
939.69	-20.90
939.99	-20.90
940.30	-20.90
940.60	-20.90
940.90	-33.45
941.20	-48.02
941.51	-26.44
941.81	-23.84
942.11	-24.18
942.41	-22.15
942.72	-24.29
943.02	-22.94
943.32	-18.19
943.62	-25.54
943.93	-30.73
944.23	-18.42
944.53	-25.20
944.83	-37.17
945.13	-9.49
945.44	-30.51
945.74	-6.21
946.04	-53.90
946.34	-2.37
946.64	-47.00
946.94	-10.51
947.25	-7.91
947.55	-33.56
947.85	-23.95
948.15	-19.10
948.45	-16.04
948.75	-38.98
949.05	-33.11
949.35	-26.55
949.66	-20.45
949.96	-3.05
950.26	-45.08
950.56	-26.44
950.86	-16.27
951.16	-46.33
951.46	-16.16
951.76	-18.42
952.06	-31.64
952.36	-17.29
952.66	-24.29
952.96	-13.45
953.26	-33.56
953.57	-17.40
953.87	-29.60
954.17	-18.64
954.47	-26.10
954.77	-38.98
955.07	-15.03
955.37	-16.72
955.67	-31.19
955.97	-32.88
956.27	-9.72
956.57	-31.75
956.87	-28.25
957.17	-24.86
957.47	-17.97
957.77	-4.07
958.06	-21.69
958.36	-26.44
958.66	-23.73
958.96	-23.39
959.26	-31.98
959.56	-26.44
959.86	-39.10
960.16	-36.27
960.46	-31.86
960.76	-31.98
961.06	-27.23
961.36	-22.03
961.66	-4.86
961.95	-22.82
962.25	-16.84
962.55	-40.00
962.85	-11.30
963.15	-32.88
963.45	-24.52
963.75	-22.37
964.05	-21.36
964.34	-17.74
964.64	-27.68
964.94	-36.72
965.24	-31.07
965.54	-18.87
965.83	-22.15
966.13	-15.82
966.43	-32.20
966.73	-21.81
967.03	-34.46
967.32	-20.79
967.62	-21.13
967.92	-40.22
968.22	-20.68
968.52	-12.54
968.81	-46.21
969.11	-18.64
969.41	-15.14
969.71	-14.69
970.00	-9.49
970.30	-12.43
970.60	-3.28
970.90	-15.71
971.19	-22.82
971.49	-42.15
971.79	-25.54
972.08	-16.50
972.38	-26.44
972.68	-30.51
972.97	-25.08
973.27	-14.46
973.57	-36.50
973.87	-21.24
974.16	-35.48
974.46	-18.87
974.75	-39.43
975.05	-33.11
975.35	-28.70
975.64	-29.60
975.94	-31.41
976.24	-26.10
976.53	-29.72
976.83	-32.20
977.13	-23.50
977.42	-8.02
977.72	-4.07
978.01	-36.61
978.31	-27.34
978.60	-12.66
978.90	-37.74
979.20	-27.23
979.49	-39.21
979.79	-22.60
980.08	-22.82
980.38	-19.55
980.67	-41.69
980.97	-31.75
981.26	-29.38
981.56	-8.93
981.86	-17.63
982.15	-14.58
982.45	-19.77
982.74	-25.99
983.04	-19.55
983.33	-8.36
983.63	-35.03
983.92	-33.67
984.21	-9.04
984.51	-30.85
984.80	-21.24
985.10	-22.03
985.39	-31.41
985.69	-29.04
985.98	-42.37
986.28	-32.88
986.57	-22.60
986.87	-7.68
987.16	-40.79
987.45	-25.54
987.75	-14.12
988.04	-8.47
988.34	-29.49
988.63	-20.34
988.92	-27.57
989.22	-15.82
989.51	-23.95
989.80	-20.45
990.10	-9.60
990.39	-21.36
990.69	-22.03
990.98	-23.95
991.27	-23.73
991.57	-17.51
991.86	-13.67
992.15	-13.45
992.45	-26.55
992.74	-30.06
993.03	-24.18
993.33	-25.31
993.62	-9.38
993.91	-23.73
994.20	-9.60
994.50	-27.00
994.79	-22.60
995.08	-24.63
995.37	-26.67
995.67	-18.53
995.96	-19.32
996.25	-38.08
996.54	-3.73
996.84	-18.08
997.13	-29.15
997.42	-27.80
997.71	-41.69
998.01	-27.00
998.30	-42.03
998.59	1.81
998.88	-21.69
999.17	-16.38
999.47	-17.17
999.76	-21.36
1000.05	-27.91
1000.34	-16.61
1000.63	-22.82
1000.92	-21.47
1001.22	-6.21
1001.51	-16.04
1001.80	-14.46
1002.09	-26.89
1002.38	-19.77
1002.67	-28.59
1002.96	-36.95
1003.26	-29.60
1003.55	-32.09
1003.84	-17.40
1004.13	-18.98
1004.42	-29.60
1004.71	-41.69
1005.00	-26.78
1005.29	-17.17
1005.58	-8.36
1005.87	-15.93
1006.16	-34.24
1006.45	-19.55
1006.74	-32.20
1007.04	-28.59
1007.33	-25.31
1007.62	-36.72
1007.91	-22.15
1008.20	-24.29
1008.49	-26.55
1008.78	-51.07
1009.07	-19.55
1009.36	-20.68
1009.65	-24.86
1009.94	-19.55
1010.23	-26.67
1010.52	-36.72
1010.81	-34.35
1011.10	-23.28
1011.38	-44.63
1011.67	-37.85
1011.96	-3.16
1012.25	-19.55
1012.54	-22.15
1012.83	-26.21
1013.12	-36.27
1013.41	-41.81
1013.70	-27.57
1013.99	-43.84
1014.28	-1.36
1014.57	-33.90
1014.86	-14.46
1015.14	-26.67
1015.43	-34.69
1015.72	-32.32
1016.01	-38.30
1016.30	-23.16
1016.59	-22.26
1016.88	-28.81
1017.16	-17.85
1017.45	-32.09
1017.74	-24.63
1018.03	-23.73
1018.32	-32.65
1018.61	-22.82
1018.89	-21.69
1019.18	-27.80
1019.47	-25.08
1019.76	-23.39
1020.05	-23.39
1020.33	-16.95
1020.62	-24.07
1020.91	-15.03
1021.20	-23.84
1021.48	-33.11
1021.77	-22.71
1022.06	-25.42
1022.35	-6.10
1022.63	-27.12
1022.92	-30.28
1023.21	-2.03
1023.50	-25.99
1023.78	-19.66
1024.07	-11.98
1024.36	-31.75
1024.64	-21.47
1024.93	-21.92
1025.22	-44.97
1025.50	-22.71
1025.79	-22.37
1026.08	-16.04
1026.36	-17.63
1026.65	-23.95
1026.94	-12.20
1027.22	-27.46
1027.51	-7.01
1027.80	-16.95
1028.08	-11.75
1028.37	-32.77
1028.66	-28.93
1028.94	-18.76
>>>>>End Processed Spectral Data<<<<<
