SpectraSuite Data File
++++++++++++++++++++++++++++++++++++
Date: Thu Jun 15 11:41:08 BST 2017
User: Eng0000912
Dark Spectrum Present: Yes
Reference Spectrum Present: No
Number of Sampled Component Spectra: 1
Spectrometers: USB2+H04851
Integration Time (usec): 100000 (USB2+H04851)
Spectra Averaged: 20 (USB2+H04851)
Boxcar Smoothing: 0 (USB2+H04851)
Correct for Electrical Dark: No (USB2+H04851)
Strobe/Lamp Enabled: No (USB2+H04851)
Correct for Detector Non-linearity: No (USB2+H04851)
Correct for Stray Light: No (USB2+H04851)
Number of Pixels in Processed Spectrum: 2048
>>>>>Begin Processed Spectral Data<<<<<
340.07	-14.35
340.45	-14.35
340.82	-14.35
341.20	-22.82
341.58	-18.76
341.96	-6.78
342.34	-35.37
342.72	-14.01
343.10	-11.86
343.48	-21.47
343.85	-38.76
344.23	-21.81
344.61	-6.89
344.99	-25.20
345.37	-23.73
345.75	-14.01
346.13	-41.35
346.50	-18.87
346.88	-19.21
347.26	-23.16
347.64	-21.58
348.02	-37.97
348.40	-34.91
348.77	-18.98
349.15	-14.58
349.53	-24.63
349.91	-27.34
350.29	-13.33
350.66	-24.75
351.04	-18.64
351.42	-10.51
351.80	-22.94
352.18	-25.20
352.55	-0.90
352.93	-30.51
353.31	-26.33
353.69	-19.21
354.07	-26.10
354.44	-17.74
354.82	-41.81
355.20	-24.97
355.58	-16.84
355.95	-18.19
356.33	-31.64
356.71	-26.10
357.09	-38.98
357.46	-41.24
357.84	-20.34
358.22	-27.57
358.60	-35.71
358.97	-21.13
359.35	-26.78
359.73	-9.83
360.10	-28.13
360.48	-21.69
360.86	-37.17
361.24	-36.27
361.61	-15.71
361.99	-27.12
362.37	-21.92
362.74	-13.78
363.12	-27.34
363.50	-37.51
363.87	-29.49
364.25	-20.00
364.63	-28.70
365.01	-32.65
365.38	-34.69
365.76	-17.51
366.14	-26.78
366.51	-5.99
366.89	-26.21
367.27	-19.77
367.64	10.28
368.02	-36.61
368.39	-20.90
368.77	-34.35
369.15	-43.16
369.52	-18.08
369.90	-27.34
370.28	-31.52
370.65	-9.94
371.03	-31.19
371.40	-32.20
371.78	-17.51
372.16	-37.51
372.53	-7.80
372.91	-9.15
373.28	-19.32
373.66	-36.95
374.04	-18.87
374.41	-29.49
374.79	-30.51
375.16	-44.29
375.54	-23.73
375.92	-17.63
376.29	-29.83
376.67	-22.94
377.04	-10.51
377.42	-18.19
377.79	-29.83
378.17	-18.30
378.55	-21.69
378.92	-12.77
379.30	-30.39
379.67	-35.37
380.05	-6.67
380.42	-8.36
380.80	-9.04
381.17	-9.60
381.55	-18.42
381.92	-19.77
382.30	-34.24
382.67	-27.80
383.05	-2.49
383.42	-29.49
383.80	-26.10
384.17	-15.59
384.55	-21.58
384.92	-26.21
385.30	-33.78
385.67	-29.60
386.05	-29.15
386.42	-31.07
386.80	-24.18
387.17	-28.36
387.55	-24.41
387.92	-16.04
388.30	-23.62
388.67	-14.91
389.04	-33.45
389.42	-19.77
389.79	-43.61
390.17	-22.60
390.54	-23.16
390.92	-26.55
391.29	-29.60
391.67	-24.41
392.04	-18.98
392.41	-6.21
392.79	-39.10
393.16	-31.19
393.54	-32.43
393.91	-29.72
394.28	-4.18
394.66	-39.89
395.03	-35.59
395.41	-20.90
395.78	2.15
396.15	-17.40
396.53	-35.82
396.90	-31.75
397.28	-23.95
397.65	-13.33
398.02	-5.65
398.40	-0.68
398.77	-32.77
399.14	-21.13
399.52	-44.18
399.89	-25.31
400.26	-34.58
400.64	-25.54
401.01	-14.46
401.38	-11.98
401.76	-12.54
402.13	-11.75
402.50	-1.02
402.88	-17.06
403.25	-13.56
403.62	-35.25
404.00	-29.94
404.37	-43.28
404.74	-29.26
405.12	-46.21
405.49	-33.78
405.86	-6.44
406.23	-13.33
406.61	-8.47
406.98	-37.97
407.35	-35.59
407.73	-38.64
408.10	-10.17
408.47	-23.62
408.84	-27.91
409.22	-14.58
409.59	-13.67
409.96	-30.96
410.33	-23.28
410.71	-26.44
411.08	-13.22
411.45	-8.70
411.82	-12.88
412.20	-19.10
412.57	-22.03
412.94	-15.37
413.31	-35.71
413.68	-25.20
414.06	-22.03
414.43	-23.28
414.80	-16.72
415.17	-10.85
415.55	-21.13
415.92	-28.59
416.29	-18.76
416.66	-17.63
417.03	-12.20
417.40	-23.16
417.78	-7.01
418.15	-19.10
418.52	-25.99
418.89	-20.56
419.26	-19.21
419.63	-11.19
420.01	-29.94
420.38	-29.83
420.75	-32.32
421.12	-28.81
421.49	-20.00
421.86	-10.85
422.23	-15.82
422.61	-21.02
422.98	-29.83
423.35	-33.45
423.72	-17.74
424.09	-20.34
424.46	0.90
424.83	-39.10
425.20	-16.72
425.58	-3.95
425.95	-24.86
426.32	-44.52
426.69	-30.51
427.06	-11.07
427.43	-12.32
427.80	-14.12
428.17	-18.76
428.54	-26.33
428.91	-16.95
429.28	-30.96
429.65	-43.61
430.02	-25.99
430.40	-32.88
430.77	-25.99
431.14	-47.34
431.51	-9.04
431.88	-20.45
432.25	-19.32
432.62	-22.71
432.99	-30.06
433.36	-23.84
433.73	-35.37
434.10	-18.64
434.47	-29.38
434.84	-18.08
435.21	-25.65
435.58	-8.70
435.95	-20.56
436.32	-25.65
436.69	-25.88
437.06	-11.30
437.43	-32.09
437.80	-16.38
438.17	-25.08
438.54	-15.93
438.91	4.75
439.28	-23.28
439.65	-36.27
440.02	-37.40
440.39	-33.78
440.76	-30.17
441.13	-5.31
441.49	-17.97
441.86	-15.48
442.23	-25.08
442.60	-24.18
442.97	-33.33
443.34	-23.16
443.71	-43.50
444.08	-34.24
444.45	-4.52
444.82	-21.92
445.19	-30.85
445.56	-38.53
445.93	-17.17
446.29	-30.28
446.66	-44.63
447.03	-28.93
447.40	-16.61
447.77	-18.87
448.14	-20.45
448.51	-12.43
448.88	4.41
449.24	-11.75
449.61	-38.53
449.98	-11.19
450.35	-40.45
450.72	-16.04
451.09	-20.90
451.46	-7.34
451.82	-14.58
452.19	-11.75
452.56	-25.08
452.93	-25.20
453.30	-24.97
453.67	-10.51
454.03	-30.96
454.40	-24.63
454.77	-6.44
455.14	-24.97
455.51	-21.13
455.87	-39.66
456.24	-13.78
456.61	-31.64
456.98	-15.71
457.35	-35.71
457.71	-15.25
458.08	-38.64
458.45	-7.80
458.82	-30.06
459.19	-18.30
459.55	-15.71
459.92	-23.62
460.29	-17.97
460.66	-21.81
461.02	-21.81
461.39	-10.85
461.76	-16.27
462.13	-38.76
462.49	-7.68
462.86	-23.95
463.23	-14.69
463.59	-20.79
463.96	-29.60
464.33	-3.39
464.70	-22.37
465.06	-12.88
465.43	-7.01
465.80	-28.02
466.16	-24.63
466.53	-36.72
466.90	-23.39
467.26	-29.15
467.63	-23.05
468.00	-18.76
468.36	-22.71
468.73	-26.33
469.10	-15.03
469.46	-11.19
469.83	-13.56
470.20	-33.45
470.56	-13.33
470.93	-37.29
471.30	-17.97
471.66	-32.32
472.03	-14.46
472.40	-21.81
472.76	-18.64
473.13	-27.91
473.50	-32.09
473.86	-12.32
474.23	-17.85
474.59	-46.55
474.96	-35.93
475.33	-22.03
475.69	-15.71
476.06	-32.20
476.42	-6.67
476.79	-28.81
477.16	-19.43
477.52	-32.20
477.89	-18.64
478.25	-11.53
478.62	-27.80
478.98	-17.40
479.35	-10.06
479.72	-41.02
480.08	-23.39
480.45	-20.34
480.81	-30.17
481.18	-31.64
481.54	-33.33
481.91	-19.43
482.27	-31.41
482.64	-23.16
483.00	-26.33
483.37	-16.27
483.73	-28.02
484.10	-6.33
484.46	-23.50
484.83	-1.92
485.19	-10.28
485.56	-21.58
485.92	-6.33
486.29	-25.54
486.65	-26.89
487.02	-22.94
487.38	-23.16
487.75	-28.02
488.11	-21.13
488.48	-28.59
488.84	-27.91
489.21	-24.29
489.57	-43.61
489.94	-33.33
490.30	-14.12
490.66	-20.45
491.03	-30.62
491.39	-21.58
491.76	-9.49
492.12	-12.20
492.49	-20.34
492.85	-29.04
493.21	-19.32
493.58	-15.48
493.94	6.55
494.31	-7.91
494.67	-26.67
495.03	-20.00
495.40	-29.38
495.76	-28.02
496.13	-9.83
496.49	-20.45
496.85	-17.17
497.22	-24.41
497.58	-17.17
497.94	-5.99
498.31	-3.95
498.67	-29.15
499.04	-18.42
499.40	-24.29
499.76	-9.04
500.13	-15.37
500.49	-10.06
500.85	-20.45
501.22	-15.59
501.58	-27.80
501.94	-13.90
502.31	-14.58
502.67	-13.33
503.03	-32.43
503.40	-23.05
503.76	-21.24
504.12	-4.18
504.48	-6.44
504.85	-17.85
505.21	-28.81
505.57	-30.28
505.94	-22.03
506.30	-10.17
506.66	-23.62
507.02	-16.38
507.39	-13.45
507.75	-34.58
508.11	-27.00
508.47	-24.97
508.84	-18.19
509.20	-20.11
509.56	-25.20
509.92	-25.65
510.29	-17.17
510.65	-21.36
511.01	-34.69
511.37	-39.10
511.74	-11.86
512.10	-9.72
512.46	-22.60
512.82	-11.64
513.18	-31.86
513.55	-21.58
513.91	-14.35
514.27	-34.35
514.63	-18.87
514.99	-20.90
515.35	-16.27
515.72	-33.45
516.08	-30.17
516.44	-36.38
516.80	-6.44
517.16	-29.83
517.52	-27.91
517.89	-27.91
518.25	-30.85
518.61	-31.07
518.97	-20.68
519.33	-23.39
519.69	3.95
520.05	-27.00
520.42	-36.38
520.78	-45.99
521.14	-41.47
521.50	-18.76
521.86	-29.04
522.22	-4.29
522.58	-6.10
522.94	-20.34
523.30	-17.74
523.67	-17.85
524.03	-32.77
524.39	-41.02
524.75	-39.32
525.11	-19.77
525.47	-14.12
525.83	-29.15
526.19	-37.63
526.55	0.45
526.91	-6.44
527.27	-22.94
527.63	-26.67
527.99	-9.72
528.35	-2.71
528.71	-14.58
529.07	-27.57
529.43	-11.98
529.79	-24.86
530.15	-3.16
530.51	-17.63
530.87	-28.59
531.23	-17.17
531.59	-8.14
531.95	-17.85
532.31	-29.83
532.67	-34.69
533.03	-35.25
533.39	-27.46
533.75	-7.57
534.11	-30.28
534.47	-12.88
534.83	-19.43
535.19	1.58
535.55	-14.91
535.91	-17.63
536.27	-25.65
536.63	-16.38
536.99	-27.57
537.35	-22.15
537.71	-25.65
538.07	-42.15
538.43	-28.13
538.79	-41.69
539.15	-18.30
539.51	-21.81
539.86	-4.97
540.22	-25.20
540.58	-33.11
540.94	-5.76
541.30	-23.73
541.66	-18.19
542.02	-6.33
542.38	-24.86
542.74	-10.96
543.09	-26.89
543.45	-18.98
543.81	-23.16
544.17	-23.62
544.53	-23.73
544.89	-31.30
545.25	-16.38
545.60	-16.50
545.96	-32.09
546.32	-16.95
546.68	-26.55
547.04	-16.84
547.40	-11.86
547.75	-16.16
548.11	-38.53
548.47	-30.17
548.83	-13.33
549.19	-16.04
549.55	-10.73
549.90	-16.72
550.26	-30.06
550.62	-17.29
550.98	-15.71
551.34	-25.31
551.69	-16.84
552.05	-27.00
552.41	-34.24
552.77	-18.76
553.12	-25.42
553.48	-11.19
553.84	-22.26
554.20	-15.93
554.55	-25.65
554.91	1.47
555.27	-35.93
555.63	-22.60
555.98	-5.08
556.34	-19.89
556.70	-20.45
557.05	-15.71
557.41	-28.70
557.77	-23.95
558.13	-24.18
558.48	-21.24
558.84	-16.61
559.20	-4.75
559.55	-29.83
559.91	-27.23
560.27	-22.26
560.62	-20.56
560.98	3.28
561.34	-7.34
561.69	-13.11
562.05	-17.85
562.41	-8.59
562.76	-31.19
563.12	-15.25
563.48	-24.07
563.83	-26.89
564.19	-25.20
564.55	-20.90
564.90	-0.90
565.26	-39.10
565.62	-26.55
565.97	-6.55
566.33	-12.99
566.68	-23.16
567.04	-14.91
567.40	-7.68
567.75	-15.48
568.11	-24.29
568.46	-25.65
568.82	-11.19
569.18	-14.12
569.53	1.47
569.89	-13.56
570.24	12.77
570.60	-17.51
570.95	-13.33
571.31	12.88
571.66	6.78
572.02	6.78
572.38	36.04
572.73	42.26
573.09	17.29
573.44	61.58
573.80	49.49
574.15	38.76
574.51	13.45
574.86	46.21
575.22	62.94
575.57	24.07
575.93	30.51
576.28	33.11
576.64	17.85
576.99	30.96
577.35	35.25
577.70	38.87
578.06	8.02
578.41	41.13
578.77	21.47
579.12	1.24
579.48	17.29
579.83	12.88
580.18	15.25
580.54	-5.65
580.89	12.43
581.25	6.33
581.60	12.43
581.96	-16.16
582.31	-19.43
582.67	-20.56
583.02	-20.90
583.37	-14.35
583.73	-18.42
584.08	-20.00
584.44	-12.09
584.79	7.23
585.14	-21.92
585.50	-21.13
585.85	-33.90
586.21	-25.76
586.56	-15.82
586.91	-20.56
587.27	-19.32
587.62	-21.47
587.97	-18.98
588.33	-18.98
588.68	-24.97
589.03	-7.57
589.39	-26.10
589.74	-12.66
590.09	-23.84
590.45	-4.97
590.80	-18.42
591.15	-28.81
591.51	-32.65
591.86	-8.59
592.21	-14.58
592.57	-32.65
592.92	-21.47
593.27	-10.40
593.63	-17.63
593.98	-20.23
594.33	-24.52
594.69	-3.39
595.04	-8.81
595.39	-15.03
595.74	-11.86
596.10	-29.49
596.45	-30.17
596.80	-31.19
597.15	-17.06
597.51	-8.81
597.86	-10.62
598.21	-14.35
598.56	-3.62
598.92	-27.80
599.27	-24.97
599.62	-18.30
599.97	-31.86
600.32	1.47
600.68	-1.81
601.03	13.11
601.38	-47.12
601.73	-12.99
602.09	-27.46
602.44	-4.63
602.79	-25.65
603.14	-14.80
603.49	-16.50
603.84	-16.61
604.20	-25.31
604.55	-4.97
604.90	-5.99
605.25	-17.40
605.60	-32.09
605.95	-25.99
606.31	-21.13
606.66	-12.20
607.01	-14.24
607.36	-29.26
607.71	-17.85
608.06	-14.91
608.41	-38.87
608.76	-9.72
609.12	-28.93
609.47	-16.27
609.82	-12.54
610.17	-18.64
610.52	-7.80
610.87	12.20
611.22	-25.88
611.57	-14.46
611.92	-9.38
612.27	1.69
612.62	-15.59
612.98	-21.92
613.33	-33.22
613.68	-4.52
614.03	-0.90
614.38	-14.24
614.73	-21.81
615.08	-17.17
615.43	-8.25
615.78	-15.93
616.13	-13.11
616.48	-22.15
616.83	-14.01
617.18	-38.42
617.53	-0.34
617.88	-29.15
618.23	-17.29
618.58	-16.84
618.93	-15.48
619.28	-16.50
619.63	-17.17
619.98	-12.20
620.33	-9.49
620.68	-15.82
621.03	-33.78
621.38	0.90
621.73	-21.24
622.08	-9.04
622.43	-21.47
622.78	-17.17
623.13	-23.62
623.48	-14.46
623.82	-15.03
624.17	-16.50
624.52	-33.22
624.87	-16.50
625.22	-20.45
625.57	-2.03
625.92	-34.46
626.27	-34.35
626.62	-14.91
626.97	-11.75
627.32	-13.90
627.66	-28.13
628.01	-9.60
628.36	-29.49
628.71	-11.75
629.06	-20.90
629.41	-8.02
629.76	-18.08
630.11	-23.05
630.45	-14.24
630.80	-21.81
631.15	-4.29
631.50	-36.38
631.85	-28.13
632.20	-11.98
632.54	-28.70
632.89	-8.70
633.24	-9.27
633.59	-13.90
633.94	-11.07
634.29	-10.85
634.63	3.39
634.98	-0.11
635.33	-24.75
635.68	-11.07
636.02	1.58
636.37	-38.42
636.72	-2.37
637.07	-16.72
637.42	-34.58
637.76	-39.21
638.11	-11.86
638.46	-32.88
638.81	-9.72
639.15	-31.07
639.50	-14.12
639.85	-4.86
640.20	1.13
640.54	-19.89
640.89	-11.07
641.24	-21.92
641.58	-9.83
641.93	-23.84
642.28	-16.27
642.63	-14.69
642.97	-22.26
643.32	-12.20
643.67	-13.67
644.01	-17.51
644.36	-28.93
644.71	-25.76
645.05	-9.94
645.40	-2.15
645.75	-28.25
646.09	-21.47
646.44	2.71
646.79	-21.69
647.13	-12.99
647.48	3.16
647.83	-13.11
648.17	-13.22
648.52	-15.37
648.86	-35.03
649.21	-8.70
649.56	-20.45
649.90	-12.99
650.25	-11.41
650.60	-26.33
650.94	-8.02
651.29	-22.94
651.63	9.27
651.98	-7.46
652.33	-15.59
652.67	-18.64
653.02	-16.38
653.36	-20.23
653.71	4.52
654.05	-11.75
654.40	-10.62
654.74	-14.69
655.09	-3.73
655.44	-18.64
655.78	-11.53
656.13	-1.36
656.47	-11.41
656.82	-13.11
657.16	-1.69
657.51	-11.75
657.85	-8.25
658.20	0.45
658.54	-10.40
658.89	-14.58
659.23	-5.42
659.58	4.29
659.92	0.56
660.27	-20.23
660.61	-13.22
660.96	-8.47
661.30	-6.44
661.65	-9.15
661.99	-11.75
662.33	8.59
662.68	9.27
663.02	-8.14
663.37	13.67
663.71	9.27
664.06	0.23
664.40	7.34
664.75	1.24
665.09	-7.46
665.43	7.80
665.78	1.47
666.12	3.84
666.47	9.72
666.81	-1.58
667.15	-1.36
667.50	9.83
667.84	9.60
668.19	12.66
668.53	-1.58
668.87	17.85
669.22	13.67
669.56	7.12
669.90	15.93
670.25	28.70
670.59	23.62
670.93	21.36
671.28	23.95
671.62	33.45
671.96	24.07
672.31	32.09
672.65	33.56
672.99	29.38
673.34	23.39
673.68	26.55
674.02	35.37
674.37	30.85
674.71	33.22
675.05	52.77
675.40	39.89
675.74	44.07
676.08	32.88
676.42	65.65
676.77	38.64
677.11	47.80
677.45	54.46
677.79	49.94
678.14	50.73
678.48	78.19
678.82	56.38
679.16	63.16
679.51	65.99
679.85	57.29
680.19	75.14
680.53	66.55
680.88	93.22
681.22	80.68
681.56	79.66
681.90	69.49
682.24	84.52
682.59	83.84
682.93	98.42
683.27	97.06
683.61	88.13
683.95	83.05
684.29	96.61
684.64	91.97
684.98	109.71
685.32	114.46
685.66	125.42
686.00	126.66
686.34	103.50
686.69	96.95
687.03	102.26
687.37	125.76
687.71	151.07
688.05	138.08
688.39	137.28
688.73	161.69
689.07	132.54
689.41	165.19
689.76	158.64
690.10	164.06
690.44	161.24
690.78	165.53
691.12	165.87
691.46	162.37
691.80	203.95
692.14	184.97
692.48	222.37
692.82	189.03
693.16	213.21
693.50	217.40
693.84	233.78
694.18	248.81
694.53	256.15
694.87	245.19
695.21	258.41
695.55	255.81
695.89	259.54
696.23	287.22
696.57	285.87
696.91	304.17
697.25	289.26
697.59	322.59
697.93	319.54
698.27	335.47
698.61	321.01
698.95	334.12
699.29	342.93
699.63	344.62
699.97	361.23
700.30	379.65
700.64	396.49
700.98	392.87
701.32	425.86
701.66	420.67
702.00	437.16
702.34	428.24
702.68	446.32
703.02	480.44
703.36	492.98
703.70	495.35
704.04	498.40
704.38	527.44
704.72	538.52
705.05	557.05
705.39	563.49
705.73	556.93
706.07	594.67
706.41	602.36
706.75	625.63
707.09	634.11
707.43	631.62
707.77	663.26
708.10	668.57
708.44	683.03
708.78	705.97
709.12	710.72
709.46	756.03
709.80	745.18
710.13	775.91
710.47	806.42
710.81	817.04
711.15	846.42
711.49	865.06
711.82	902.58
712.16	900.77
712.50	907.55
712.84	956.36
713.18	955.34
713.51	990.03
713.85	998.39
714.19	1030.82
714.53	1074.77
714.87	1111.50
715.20	1085.51
715.54	1113.42
715.88	1176.01
716.22	1181.32
716.55	1221.89
716.89	1247.20
717.23	1252.51
717.57	1294.88
717.90	1316.01
718.24	1351.60
718.58	1381.88
718.91	1399.85
719.25	1474.20
719.59	1480.53
719.93	1534.31
720.26	1569.22
720.60	1615.78
720.94	1657.47
721.27	1687.41
721.61	1709.45
721.95	1757.02
722.28	1822.10
722.62	1849.33
722.96	1890.68
723.29	1926.50
723.63	1991.47
723.97	2032.26
724.30	2055.99
724.64	2128.87
724.97	2197.91
725.31	2259.38
725.65	2289.88
725.98	2347.40
726.32	2389.20
726.66	2477.45
726.99	2521.40
727.33	2595.19
727.66	2666.71
728.00	2732.36
728.33	2826.25
728.67	2852.02
729.01	2937.21
729.34	3003.76
729.68	3096.42
730.01	3138.56
730.35	3248.39
730.68	3299.91
731.02	3339.91
731.36	3453.81
731.69	3567.48
732.03	3647.47
732.36	3699.90
732.70	3757.42
733.03	3877.41
733.37	3970.18
733.70	4053.79
734.04	4158.76
734.37	4249.27
734.71	4371.18
735.04	4464.63
735.38	4536.94
735.71	4673.10
736.05	4774.68
736.38	4819.20
736.72	4941.34
737.05	5062.24
737.38	5153.65
737.72	5273.99
738.05	5396.81
738.39	5476.92
738.72	5600.30
739.06	5732.73
739.39	5839.96
739.73	5930.47
740.06	6061.99
740.39	6172.61
740.73	6324.24
741.06	6446.95
741.40	6559.38
741.73	6681.75
742.06	6779.14
742.40	6931.23
742.73	7003.77
743.07	7163.88
743.40	7330.43
743.73	7427.49
744.07	7537.43
744.40	7729.97
744.73	7877.42
745.07	7974.37
745.40	8086.91
745.73	8293.45
746.07	8412.32
746.40	8521.58
746.73	8659.43
747.07	8791.29
747.40	8983.04
747.73	9111.62
748.07	9177.61
748.40	9426.64
748.73	9549.81
749.07	9755.22
749.40	9892.62
749.73	10095.78
750.06	10177.02
750.40	10277.02
750.73	10511.02
751.06	10615.43
751.40	10857.23
751.73	10966.60
752.06	11141.18
752.39	11308.74
752.73	11490.55
753.06	11649.98
753.39	11799.92
753.72	11940.48
754.05	12060.70
754.39	12251.32
754.72	12439.56
755.05	12710.63
755.38	12770.40
755.72	12878.98
756.05	13017.40
756.38	13274.00
756.71	13422.92
757.04	13528.68
757.37	13638.40
757.71	13821.56
758.04	13897.04
758.37	14182.23
758.70	14231.60
759.03	14450.02
759.36	14635.10
759.70	14830.57
760.03	14879.04
760.36	15096.33
760.69	15280.73
761.02	15386.26
761.35	15476.66
761.68	15689.19
762.01	15765.24
762.35	15930.99
762.68	15963.65
763.01	16247.14
763.34	16328.50
763.67	16407.03
764.00	16448.04
764.33	16553.35
764.66	16614.25
764.99	16755.72
765.32	16744.08
765.65	17004.07
765.98	17247.46
766.31	17029.16
766.65	17050.85
766.98	17111.41
767.31	17264.18
767.64	17347.23
767.97	17222.15
768.30	17269.38
768.63	17391.63
768.96	17151.64
769.29	17254.24
769.62	17190.51
769.95	17294.12
770.28	17212.65
770.61	17117.06
770.94	17234.80
771.27	17184.75
771.60	17156.95
771.93	17138.98
772.26	17020.00
772.59	16912.89
772.92	17001.59
773.24	16998.08
773.57	17008.14
773.90	16757.30
774.23	16788.49
774.56	16670.64
774.89	16669.39
775.22	16491.32
775.55	16486.91
775.88	16270.76
776.21	16147.94
776.54	15999.13
776.87	15788.51
777.19	15689.08
777.52	15706.48
777.85	15476.54
778.18	15320.73
778.51	15169.77
778.84	15084.69
779.17	15020.73
779.50	14879.95
779.82	14678.82
780.15	14443.35
780.48	14230.93
780.81	14105.17
781.14	14025.05
781.47	13891.05
781.80	13651.39
782.12	13635.91
782.45	13352.08
782.78	13351.17
783.11	13126.89
783.44	12902.94
783.76	12858.53
784.09	12589.73
784.42	12467.58
784.75	12309.96
785.08	12084.99
785.40	11965.45
785.73	11828.16
786.06	11563.76
786.39	11508.17
786.71	11315.75
787.04	11220.95
787.37	10982.20
787.70	10749.21
788.02	10632.83
788.35	10423.91
788.68	10158.15
789.00	10127.98
789.33	9807.65
789.66	9707.88
789.99	9494.89
790.31	9331.62
790.64	9219.87
790.97	9007.90
791.29	8971.18
791.62	8758.19
791.95	8528.82
792.27	8395.37
792.60	8278.77
792.93	8151.65
793.25	7941.15
793.58	7882.28
793.91	7753.24
794.23	7520.93
794.56	7399.69
794.89	7268.74
795.21	7206.25
795.54	6973.94
795.87	6898.58
796.19	6753.72
796.52	6635.76
796.84	6436.33
797.17	6322.66
797.50	6246.05
797.82	6056.79
798.15	5995.32
798.47	5854.76
798.80	5718.61
799.12	5624.71
799.45	5492.28
799.78	5355.34
800.10	5207.32
800.43	5085.97
800.75	4978.51
801.08	4875.13
801.40	4754.11
801.73	4615.36
802.05	4515.93
802.38	4444.97
802.70	4305.31
803.03	4177.97
803.35	4100.80
803.68	4033.45
804.00	3887.36
804.33	3829.16
804.65	3726.46
804.98	3612.67
805.30	3501.49
805.63	3377.99
805.95	3269.29
806.28	3224.55
806.60	3078.11
806.93	3039.13
807.25	2943.43
807.58	2882.41
807.90	2786.14
808.22	2672.47
808.55	2623.09
808.87	2556.66
809.20	2480.61
809.52	2435.19
809.85	2328.53
810.17	2234.18
810.49	2171.92
810.82	2114.41
811.14	2074.63
811.47	1996.11
811.79	1948.20
812.11	1859.39
812.44	1814.08
812.76	1775.21
813.08	1689.11
813.41	1647.53
813.73	1585.72
814.05	1548.66
814.38	1502.22
814.70	1433.75
815.02	1389.68
815.35	1362.90
815.67	1302.00
815.99	1286.07
816.32	1227.76
816.64	1182.68
816.96	1164.26
817.29	1122.34
817.61	1093.30
817.93	1070.59
818.26	1038.16
818.58	976.02
818.90	935.23
819.22	916.93
819.55	906.98
819.87	871.50
820.19	843.93
820.51	814.44
820.84	777.04
821.16	765.40
821.48	718.40
821.80	718.85
822.13	666.42
822.45	686.99
822.77	653.54
823.09	636.25
823.41	626.76
823.74	593.20
824.06	575.01
824.38	549.48
824.70	521.00
825.02	522.47
825.35	520.89
825.67	477.05
825.99	482.59
826.31	479.99
826.63	448.24
826.95	443.72
827.27	428.35
827.60	433.43
827.92	415.13
828.24	399.31
828.56	378.41
828.88	359.76
829.20	366.66
829.52	323.04
829.84	344.06
830.17	322.48
830.49	316.04
830.81	315.58
831.13	298.41
831.45	298.75
831.77	282.25
832.09	276.60
832.41	270.61
832.73	278.98
833.05	260.90
833.37	266.55
833.69	228.69
834.01	245.64
834.33	239.88
834.65	212.54
834.97	209.37
835.29	209.94
835.61	192.65
835.94	219.66
836.26	206.32
836.58	181.69
836.90	178.64
837.21	188.70
837.53	172.31
837.85	158.64
838.17	165.98
838.49	141.58
838.81	148.58
839.13	152.43
839.45	142.93
839.77	147.00
840.09	124.29
840.41	125.42
840.73	119.88
841.05	106.44
841.37	124.18
841.69	117.17
842.01	103.39
842.33	112.43
842.65	94.69
842.96	88.13
843.28	96.72
843.60	90.62
843.92	89.15
844.24	90.17
844.56	86.44
844.88	73.11
845.20	62.26
845.52	86.10
845.83	67.00
846.15	60.34
846.47	62.15
846.79	65.76
847.11	52.99
847.43	60.11
847.74	61.02
848.06	53.90
848.38	69.60
848.70	55.03
849.02	44.18
849.33	25.65
849.65	38.08
849.97	55.03
850.29	41.81
850.61	37.51
850.92	24.18
851.24	5.42
851.56	10.17
851.88	32.99
852.19	27.23
852.51	8.70
852.83	31.07
853.15	30.28
853.46	21.69
853.78	25.65
854.10	19.21
854.42	23.95
854.73	28.93
855.05	2.26
855.37	8.93
855.68	19.43
856.00	15.14
856.32	-7.01
856.63	-2.71
856.95	9.04
857.27	8.70
857.59	-5.54
857.90	-3.50
858.22	-9.49
858.53	-15.82
858.85	15.59
859.17	2.82
859.48	3.62
859.80	-11.64
860.12	-10.28
860.43	-3.84
860.75	3.73
861.07	0.11
861.38	-3.16
861.70	-8.25
862.01	-22.71
862.33	-16.04
862.65	5.42
862.96	3.05
863.28	-23.95
863.59	8.36
863.91	-0.56
864.22	-18.08
864.54	-12.54
864.86	-2.26
865.17	-15.37
865.49	-1.36
865.80	-5.65
866.12	-27.57
866.43	-13.33
866.75	0.68
867.06	-11.53
867.38	-6.55
867.69	-30.06
868.01	-11.41
868.32	-32.20
868.64	-7.46
868.95	-8.02
869.27	-9.38
869.58	-12.32
869.90	-19.89
870.21	-16.84
870.53	-5.20
870.84	-17.06
871.15	-8.59
871.47	-0.79
871.78	-5.42
872.10	-22.94
872.41	-3.05
872.73	-21.02
873.04	-32.88
873.36	-27.80
873.67	-10.28
873.98	-6.44
874.30	0.45
874.61	-14.46
874.93	-18.87
875.24	-17.17
875.55	-24.18
875.87	-6.89
876.18	-18.53
876.49	-3.73
876.81	-5.54
877.12	-12.99
877.43	-23.39
877.75	-6.44
878.06	5.65
878.37	-28.25
878.69	1.81
879.00	-17.74
879.31	-3.62
879.63	-18.42
879.94	-17.74
880.25	-11.07
880.57	-13.22
880.88	-3.95
881.19	-1.02
881.50	-17.17
881.82	-19.10
882.13	-10.17
882.44	-15.37
882.76	-34.80
883.07	-19.32
883.38	-21.69
883.69	-31.30
884.01	-27.00
884.32	-10.51
884.63	-31.41
884.94	-31.07
885.25	-35.14
885.57	-22.03
885.88	-14.69
886.19	-27.12
886.50	-12.09
886.81	-15.59
887.13	-1.81
887.44	-24.29
887.75	-24.29
888.06	-17.51
888.37	-14.46
888.69	-39.55
889.00	-35.71
889.31	-4.41
889.62	-25.42
889.93	-20.90
890.24	-4.41
890.55	-6.55
890.87	-23.28
891.18	-16.04
891.49	-1.81
891.80	-28.70
892.11	-25.76
892.42	-19.89
892.73	-18.30
893.04	-21.36
893.35	-13.11
893.66	-16.84
893.98	-38.64
894.29	-28.25
894.60	-33.22
894.91	-12.43
895.22	-36.16
895.53	-6.44
895.84	-6.10
896.15	-12.43
896.46	-12.32
896.77	-20.34
897.08	-23.16
897.39	-19.32
897.70	-24.63
898.01	-14.24
898.32	-33.67
898.63	-26.89
898.94	-19.77
899.25	-21.81
899.56	-9.83
899.87	-6.55
900.18	-13.45
900.49	-32.99
900.80	-31.41
901.11	-35.82
901.42	-17.63
901.73	-8.59
902.04	-17.40
902.35	-15.14
902.66	-42.82
902.96	-28.25
903.27	-26.67
903.58	-21.36
903.89	-18.08
904.20	-22.60
904.51	-19.89
904.82	-24.63
905.13	-38.53
905.44	-37.17
905.75	-33.22
906.05	-17.63
906.36	-15.59
906.67	-25.20
906.98	-25.08
907.29	-16.84
907.60	-21.81
907.91	-21.58
908.21	-9.83
908.52	-25.31
908.83	-10.06
909.14	-29.83
909.45	-18.98
909.75	-41.02
910.06	-22.26
910.37	-14.80
910.68	-17.29
910.99	-4.18
911.29	-12.88
911.60	-12.66
911.91	-30.06
912.22	-34.80
912.52	-28.02
912.83	-24.86
913.14	-13.90
913.45	-39.32
913.75	-21.69
914.06	-21.24
914.37	-27.12
914.68	2.94
914.98	-20.23
915.29	-30.73
915.60	-30.39
915.91	-9.83
916.21	-25.20
916.52	-30.28
916.83	-44.18
917.13	-18.08
917.44	5.42
917.75	-19.89
918.05	-8.81
918.36	-10.62
918.67	-42.03
918.97	-27.91
919.28	-22.49
919.59	-21.92
919.89	-20.90
920.20	-27.91
920.50	-18.30
920.81	-42.94
921.12	-25.20
921.42	-23.84
921.73	-44.18
922.03	-24.07
922.34	-12.43
922.65	-19.32
922.95	-25.65
923.26	-30.06
923.56	-13.33
923.87	-30.28
924.18	-41.13
924.48	-31.07
924.79	-32.88
925.09	-21.24
925.40	-8.14
925.70	-28.70
926.01	-14.91
926.31	-1.36
926.62	-43.95
926.92	-24.52
927.23	-30.51
927.53	-23.84
927.84	-13.90
928.14	-29.60
928.45	-15.71
928.75	-25.65
929.06	-11.19
929.36	-18.30
929.67	-24.75
929.97	-23.39
930.28	-25.42
930.58	-18.53
930.89	-28.81
931.19	-30.51
931.49	-16.04
931.80	-32.77
932.10	-10.40
932.41	-38.76
932.71	-24.63
933.01	-16.95
933.32	-12.09
933.62	-15.82
933.93	-15.03
934.23	-6.67
934.53	-19.43
934.84	0.90
935.14	-19.77
935.45	-34.01
935.75	-23.95
936.05	-31.30
936.36	-27.46
936.66	-8.59
936.96	-22.94
937.27	-28.81
937.57	-19.55
937.87	-11.75
938.18	-12.54
938.48	-13.45
938.78	-5.99
939.08	-54.35
939.39	-26.89
939.69	-25.20
939.99	-32.32
940.30	-17.74
940.60	-16.61
940.90	-28.36
941.20	-30.51
941.51	-19.32
941.81	-20.45
942.11	-26.44
942.41	-29.26
942.72	-30.85
943.02	-27.23
943.32	-15.71
943.62	-18.98
943.93	-18.19
944.23	-4.07
944.53	-23.05
944.83	-22.82
945.13	-34.24
945.44	-31.86
945.74	-5.88
946.04	-39.55
946.34	-6.21
946.64	-37.74
946.94	-8.93
947.25	-22.82
947.55	-45.31
947.85	-19.55
948.15	-22.26
948.45	-39.43
948.75	-29.15
949.05	-34.01
949.35	-14.58
949.66	-6.89
949.96	-0.90
950.26	-26.78
950.56	-16.04
950.86	-35.25
951.16	-46.78
951.46	-32.32
951.76	-34.35
952.06	-12.43
952.36	-7.46
952.66	-9.27
952.96	-24.29
953.26	-27.57
953.57	-12.66
953.87	-27.68
954.17	-4.86
954.47	-15.71
954.77	-27.80
955.07	-17.85
955.37	-18.53
955.67	-18.98
955.97	-15.25
956.27	-21.92
956.57	-21.69
956.87	-20.56
957.17	-28.13
957.47	-29.26
957.77	-5.88
958.06	-18.08
958.36	-29.72
958.66	-15.14
958.96	-33.90
959.26	-26.55
959.56	-33.78
959.86	-18.42
960.16	-22.60
960.46	-20.00
960.76	-27.91
961.06	-35.59
961.36	-43.39
961.66	-15.25
961.95	-21.24
962.25	-22.37
962.55	-23.62
962.85	-3.50
963.15	-19.21
963.45	-25.08
963.75	-17.85
964.05	-19.43
964.34	-18.53
964.64	-29.15
964.94	-30.51
965.24	-28.02
965.54	-24.86
965.83	-21.69
966.13	-9.60
966.43	-17.29
966.73	-1.36
967.03	-18.64
967.32	-20.45
967.62	-27.23
967.92	-37.85
968.22	-39.77
968.52	-23.73
968.81	-29.15
969.11	-35.93
969.41	-30.39
969.71	-25.08
970.00	-19.10
970.30	-18.19
970.60	-11.64
970.90	-23.50
971.19	-18.87
971.49	-24.97
971.79	-38.53
972.08	-25.42
972.38	-43.39
972.68	-6.33
972.97	-15.37
973.27	-21.13
973.57	-31.07
973.87	-24.75
974.16	-37.06
974.46	-12.43
974.75	-28.70
975.05	-23.16
975.35	-8.02
975.64	-37.40
975.94	-28.93
976.24	-9.49
976.53	-25.76
976.83	-17.17
977.13	-21.92
977.42	-8.81
977.72	-4.29
978.01	-51.64
978.31	-24.63
978.60	-29.26
978.90	-19.43
979.20	-16.38
979.49	-33.78
979.79	-24.75
980.08	-24.52
980.38	-22.37
980.67	-7.34
980.97	-31.98
981.26	-32.99
981.56	-21.81
981.86	-22.49
982.15	-18.87
982.45	-25.88
982.74	-23.95
983.04	-28.36
983.33	-38.19
983.63	-18.08
983.92	-19.10
984.21	-27.68
984.51	-21.58
984.80	-3.28
985.10	-26.44
985.39	-1.58
985.69	-31.64
985.98	-31.19
986.28	-30.51
986.57	-38.42
986.87	-0.45
987.16	-33.45
987.45	-16.72
987.75	-10.73
988.04	-15.14
988.34	-20.56
988.63	-23.05
988.92	-25.65
989.22	-18.76
989.51	-25.65
989.80	-31.19
990.10	-13.67
990.39	-39.32
990.69	-22.49
990.98	-39.77
991.27	-7.46
991.57	-26.89
991.86	-28.93
992.15	-13.67
992.45	-16.95
992.74	-17.40
993.03	-23.84
993.33	-19.21
993.62	-10.17
993.91	-26.44
994.20	-23.95
994.50	-27.91
994.79	-19.21
995.08	-23.73
995.37	-25.76
995.67	-4.07
995.96	-28.70
996.25	-19.21
996.54	-7.46
996.84	-13.11
997.13	-13.67
997.42	-30.06
997.71	-25.54
998.01	-11.98
998.30	-29.04
998.59	-12.88
998.88	-17.97
999.17	-6.55
999.47	-3.05
999.76	-26.44
1000.05	-25.65
1000.34	-18.08
1000.63	-18.53
1000.92	-2.94
1001.22	-28.47
1001.51	-29.15
1001.80	-35.37
1002.09	-31.75
1002.38	-12.77
1002.67	-32.09
1002.96	-40.11
1003.26	-16.04
1003.55	-25.54
1003.84	-17.17
1004.13	-15.93
1004.42	-30.17
1004.71	-43.39
1005.00	-7.91
1005.29	-17.51
1005.58	-32.88
1005.87	-10.28
1006.16	-31.52
1006.45	-21.58
1006.74	-19.55
1007.04	-27.57
1007.33	-14.24
1007.62	-40.11
1007.91	-6.21
1008.20	-32.77
1008.49	-44.29
1008.78	-18.42
1009.07	-16.04
1009.36	-18.53
1009.65	-24.18
1009.94	-39.21
1010.23	-24.18
1010.52	-16.04
1010.81	-24.75
1011.10	-25.08
1011.38	-41.24
1011.67	-28.93
1011.96	-10.96
1012.25	-16.95
1012.54	-24.97
1012.83	-32.32
1013.12	-44.63
1013.41	-28.36
1013.70	-41.02
1013.99	-25.76
1014.28	-16.84
1014.57	-29.60
1014.86	-25.76
1015.14	-26.33
1015.43	-34.24
1015.72	-21.24
1016.01	-24.75
1016.30	-28.81
1016.59	-24.97
1016.88	-33.90
1017.16	-5.54
1017.45	-24.52
1017.74	-34.91
1018.03	-26.44
1018.32	-29.83
1018.61	-32.20
1018.89	-4.29
1019.18	-13.78
1019.47	-29.26
1019.76	-32.65
1020.05	-33.22
1020.33	-16.61
1020.62	-15.93
1020.91	-4.29
1021.20	-22.60
1021.48	-25.99
1021.77	-13.56
1022.06	-21.92
1022.35	-24.29
1022.63	-28.25
1022.92	-32.20
1023.21	-3.05
1023.50	-32.32
1023.78	-27.23
1024.07	-8.70
1024.36	-16.72
1024.64	-0.45
1024.93	-32.65
1025.22	-36.50
1025.50	-3.73
1025.79	-26.55
1026.08	-20.11
1026.36	-23.95
1026.65	-25.65
1026.94	-13.33
1027.22	-21.92
1027.51	-13.11
1027.80	-21.92
1028.08	-8.47
1028.37	-32.88
1028.66	-27.00
1028.94	-25.99
>>>>>End Processed Spectral Data<<<<<
